ExperimentName,Subject,Session,Age,ClockInformation,DataFileBasename,DisplayRefreshRate,ExperimentVersion,FirstLanguage,Group,Occupation,RandomSeed,RuntimeCapabilities,RuntimeVersion,RuntimeVersionExpected,SessionDate,SessionStartDateTimeUtc,SessionTime,Sex,StudioVersion,Block,BlockList,BlockListCycle,BlockListSample,ProcedureBlock,RunningBlock,Trial,CrossLangDiff,Form_Form_Chinese,Form_Form_English,Form_Form_Spanish,HumanORComputer,MetaphorID,Novelty_Chinese,Novelty_European,PracList,PracListCycle,PracListSample,ProcedureTrial,Q1OnsetTime,Q1RESP,Q1RT,Q1RTTime,Q2RESP,Q2RT,Q2RTTime,Q3RESP,Q3RT,Q3RTTime,Q4RESP,Q4RT,Q4RTTime,RunningTrial,Stimuli,TrialList,TrialListCycle,TrialListSample
Tweet_Rating_Chinese_Right,43,1,18-30,"<?xml version=""1.0""?>\n<Clock xmlns:dt=""urn:schemas-microsoft-com:datatypes""><Description dt:dt=""string"">E-Prime Primary Realtime Clock</Description><StartTime><Timestamp dt:dt=""int"">0</Timestamp><DateUtc dt:dt=""string"">2015-05-26T11:04:15Z</DateUtc></StartTime><FrequencyChanges><FrequencyChange><Frequency dt:dt=""r8"">3312890</Frequency><Timestamp dt:dt=""r8"">38967280877</Timestamp><Current dt:dt=""r8"">0</Current><DateUtc dt:dt=""string"">2015-05-26T11:04:15Z</DateUtc></FrequencyChange></FrequencyChanges></Clock>\n",Tweet_Rating_Chinese_Right-43-1,59.822,1.0.0.374,中文,1,研究生,313235464,Professional,2.0.10.353,2.0.10.353,05-26-2015,2015-05-26T11:04:00Z,12:04:15.000000,女,2.0.10.248,4,4,1,4,BlockProc,BlockList,1,0,1,2,2,0,5,2,2,NA,NA,NA,TrialProc,266677,No,3361,270038,NA,0,0,3,3672,273726,0,866,274614,TrialList,音乐是一团安慰的火。,5,1,1
Tweet_Rating_Chinese_Right,43,1,18-30,"<?xml version=""1.0""?>\n<Clock xmlns:dt=""urn:schemas-microsoft-com:datatypes""><Description dt:dt=""string"">E-Prime Primary Realtime Clock</Description><StartTime><Timestamp dt:dt=""int"">0</Timestamp><DateUtc dt:dt=""string"">2015-05-26T11:04:15Z</DateUtc></StartTime><FrequencyChanges><FrequencyChange><Frequency dt:dt=""r8"">3312890</Frequency><Timestamp dt:dt=""r8"">38967280877</Timestamp><Current dt:dt=""r8"">0</Current><DateUtc dt:dt=""string"">2015-05-26T11:04:15Z</DateUtc></FrequencyChange></FrequencyChanges></Clock>\n",Tweet_Rating_Chinese_Right-43-1,59.822,1.0.0.374,中文,1,研究生,313235464,Professional,2.0.10.353,2.0.10.353,05-26-2015,2015-05-26T11:04:00Z,12:04:15.000000,女,2.0.10.248,4,4,1,4,BlockProc,BlockList,2,0,2,1,2,0,27,1,1,NA,NA,NA,TrialProc,279215,Yes,1854,281069,2,1534,282621,4,2507,285149,0,2023,287189,TrialList,艺术是一种美丽的爱。,27,1,2
Tweet_Rating_Chinese_Right,43,1,18-30,"<?xml version=""1.0""?>\n<Clock xmlns:dt=""urn:schemas-microsoft-com:datatypes""><Description dt:dt=""string"">E-Prime Primary Realtime Clock</Description><StartTime><Timestamp dt:dt=""int"">0</Timestamp><DateUtc dt:dt=""string"">2015-05-26T11:04:15Z</DateUtc></StartTime><FrequencyChanges><FrequencyChange><Frequency dt:dt=""r8"">3312890</Frequency><Timestamp dt:dt=""r8"">38967280877</Timestamp><Current dt:dt=""r8"">0</Current><DateUtc dt:dt=""string"">2015-05-26T11:04:15Z</DateUtc></FrequencyChange></FrequencyChanges></Clock>\n",Tweet_Rating_Chinese_Right-43-1,59.822,1.0.0.374,中文,1,研究生,313235464,Professional,2.0.10.353,2.0.10.353,05-26-2015,2015-05-26T11:04:00Z,12:04:15.000000,女,2.0.10.248,4,4,1,4,BlockProc,BlockList,3,0,1,1,2,0,43,3,3,NA,NA,NA,TrialProc,292320,No,4189,296509,NA,0,0,3,3120,299653,0,1737,301413,TrialList,疾病是温暖的光。,43,1,3
Tweet_Rating_Chinese_Right,43,1,18-30,"<?xml version=""1.0""?>\n<Clock xmlns:dt=""urn:schemas-microsoft-com:datatypes""><Description dt:dt=""string"">E-Prime Primary Realtime Clock</Description><StartTime><Timestamp dt:dt=""int"">0</Timestamp><DateUtc dt:dt=""string"">2015-05-26T11:04:15Z</DateUtc></StartTime><FrequencyChanges><FrequencyChange><Frequency dt:dt=""r8"">3312890</Frequency><Timestamp dt:dt=""r8"">38967280877</Timestamp><Current dt:dt=""r8"">0</Current><DateUtc dt:dt=""string"">2015-05-26T11:04:15Z</DateUtc></FrequencyChange></FrequencyChanges></Clock>\n",Tweet_Rating_Chinese_Right-43-1,59.822,1.0.0.374,中文,1,研究生,313235464,Professional,2.0.10.353,2.0.10.353,05-26-2015,2015-05-26T11:04:00Z,12:04:15.000000,女,2.0.10.248,4,4,1,4,BlockProc,BlockList,4,0,1,3,2,0,35,3,3,NA,NA,NA,TrialProc,306396,Yes,6008,312404,2,1486,313916,4,2013,315948,1,4622,320596,TrialList,权力是一杯纯净水。,35,1,4
Tweet_Rating_Chinese_Right,43,1,18-30,"<?xml version=""1.0""?>\n<Clock xmlns:dt=""urn:schemas-microsoft-com:datatypes""><Description dt:dt=""string"">E-Prime Primary Realtime Clock</Description><StartTime><Timestamp dt:dt=""int"">0</Timestamp><DateUtc dt:dt=""string"">2015-05-26T11:04:15Z</DateUtc></StartTime><FrequencyChanges><FrequencyChange><Frequency dt:dt=""r8"">3312890</Frequency><Timestamp dt:dt=""r8"">38967280877</Timestamp><Current dt:dt=""r8"">0</Current><DateUtc dt:dt=""string"">2015-05-26T11:04:15Z</DateUtc></FrequencyChange></FrequencyChanges></Clock>\n",Tweet_Rating_Chinese_Right-43-1,59.822,1.0.0.374,中文,1,研究生,313235464,Professional,2.0.10.353,2.0.10.353,05-26-2015,2015-05-26T11:04:00Z,12:04:15.000000,女,2.0.10.248,4,4,1,4,BlockProc,BlockList,5,0,2,1,2,0,19,3,3,NA,NA,NA,TrialProc,326205,No,7190,333395,NA,0,0,3,1650,335059,0,4362,339443,TrialList,障碍是平静的睡眠。,19,1,5
Tweet_Rating_Chinese_Right,43,1,18-30,"<?xml version=""1.0""?>\n<Clock xmlns:dt=""urn:schemas-microsoft-com:datatypes""><Description dt:dt=""string"">E-Prime Primary Realtime Clock</Description><StartTime><Timestamp dt:dt=""int"">0</Timestamp><DateUtc dt:dt=""string"">2015-05-26T11:04:15Z</DateUtc></StartTime><FrequencyChanges><FrequencyChange><Frequency dt:dt=""r8"">3312890</Frequency><Timestamp dt:dt=""r8"">38967280877</Timestamp><Current dt:dt=""r8"">0</Current><DateUtc dt:dt=""string"">2015-05-26T11:04:15Z</DateUtc></FrequencyChange></FrequencyChanges></Clock>\n",Tweet_Rating_Chinese_Right-43-1,59.822,1.0.0.374,中文,1,研究生,313235464,Professional,2.0.10.353,2.0.10.353,05-26-2015,2015-05-26T11:04:00Z,12:04:15.000000,女,2.0.10.248,4,4,1,4,BlockProc,BlockList,6,0,2,2,3,0,13,2,2,NA,NA,NA,TrialProc,343606,Yes,4917,348523,3,2273,350811,5,1239,352067,1,1513,353595,TrialList,生命是一杯诱人的葡萄酒。,13,1,6
Tweet_Rating_Chinese_Right,43,1,18-30,"<?xml version=""1.0""?>\n<Clock xmlns:dt=""urn:schemas-microsoft-com:datatypes""><Description dt:dt=""string"">E-Prime Primary Realtime Clock</Description><StartTime><Timestamp dt:dt=""int"">0</Timestamp><DateUtc dt:dt=""string"">2015-05-26T11:04:15Z</DateUtc></StartTime><FrequencyChanges><FrequencyChange><Frequency dt:dt=""r8"">3312890</Frequency><Timestamp dt:dt=""r8"">38967280877</Timestamp><Current dt:dt=""r8"">0</Current><DateUtc dt:dt=""string"">2015-05-26T11:04:15Z</DateUtc></FrequencyChange></FrequencyChanges></Clock>\n",Tweet_Rating_Chinese_Right-43-1,59.822,1.0.0.374,中文,1,研究生,313235464,Professional,2.0.10.353,2.0.10.353,05-26-2015,2015-05-26T11:04:00Z,12:04:15.000000,女,2.0.10.248,4,4,1,4,BlockProc,BlockList,7,0,3,2,2,0,37,1,1,NA,NA,NA,TrialProc,358066,Yes,2864,360930,2,940,361898,4,1843,363754,1,2323,366106,TrialList,爱情是一副美丽的图画。,37,1,7
Tweet_Rating_Chinese_Right,43,1,18-30,"<?xml version=""1.0""?>\n<Clock xmlns:dt=""urn:schemas-microsoft-com:datatypes""><Description dt:dt=""string"">E-Prime Primary Realtime Clock</Description><StartTime><Timestamp dt:dt=""int"">0</Timestamp><DateUtc dt:dt=""string"">2015-05-26T11:04:15Z</DateUtc></StartTime><FrequencyChanges><FrequencyChange><Frequency dt:dt=""r8"">3312890</Frequency><Timestamp dt:dt=""r8"">38967280877</Timestamp><Current dt:dt=""r8"">0</Current><DateUtc dt:dt=""string"">2015-05-26T11:04:15Z</DateUtc></FrequencyChange></FrequencyChanges></Clock>\n",Tweet_Rating_Chinese_Right-43-1,59.822,1.0.0.374,中文,1,研究生,313235464,Professional,2.0.10.353,2.0.10.353,05-26-2015,2015-05-26T11:04:00Z,12:04:15.000000,女,2.0.10.248,4,4,1,4,BlockProc,BlockList,8,0,2,3,1,0,14,2,2,NA,NA,NA,TrialProc,370754,Yes,3912,374666,2,1312,375994,4,1119,377138,0,438,377594,TrialList,语言是一种温柔的爱。,14,1,8
Tweet_Rating_Chinese_Right,43,1,18-30,"<?xml version=""1.0""?>\n<Clock xmlns:dt=""urn:schemas-microsoft-com:datatypes""><Description dt:dt=""string"">E-Prime Primary Realtime Clock</Description><StartTime><Timestamp dt:dt=""int"">0</Timestamp><DateUtc dt:dt=""string"">2015-05-26T11:04:15Z</DateUtc></StartTime><FrequencyChanges><FrequencyChange><Frequency dt:dt=""r8"">3312890</Frequency><Timestamp dt:dt=""r8"">38967280877</Timestamp><Current dt:dt=""r8"">0</Current><DateUtc dt:dt=""string"">2015-05-26T11:04:15Z</DateUtc></FrequencyChange></FrequencyChanges></Clock>\n",Tweet_Rating_Chinese_Right-43-1,59.822,1.0.0.374,中文,1,研究生,313235464,Professional,2.0.10.353,2.0.10.353,05-26-2015,2015-05-26T11:04:00Z,12:04:15.000000,女,2.0.10.248,4,4,1,4,BlockProc,BlockList,9,1,2,3,2,0,23,3,2,NA,NA,NA,TrialProc,382054,Yes,3539,385593,1,1210,386825,3,3309,390161,0,1327,391505,TrialList,真理是一首舒缓的音乐。,23,1,9
Tweet_Rating_Chinese_Right,43,1,18-30,"<?xml version=""1.0""?>\n<Clock xmlns:dt=""urn:schemas-microsoft-com:datatypes""><Description dt:dt=""string"">E-Prime Primary Realtime Clock</Description><StartTime><Timestamp dt:dt=""int"">0</Timestamp><DateUtc dt:dt=""string"">2015-05-26T11:04:15Z</DateUtc></StartTime><FrequencyChanges><FrequencyChange><Frequency dt:dt=""r8"">3312890</Frequency><Timestamp dt:dt=""r8"">38967280877</Timestamp><Current dt:dt=""r8"">0</Current><DateUtc dt:dt=""string"">2015-05-26T11:04:15Z</DateUtc></FrequencyChange></FrequencyChanges></Clock>\n",Tweet_Rating_Chinese_Right-43-1,59.822,1.0.0.374,中文,1,研究生,313235464,Professional,2.0.10.353,2.0.10.353,05-26-2015,2015-05-26T11:04:00Z,12:04:15.000000,女,2.0.10.248,4,4,1,4,BlockProc,BlockList,10,0,2,3,1,0,29,3,3,NA,NA,NA,TrialProc,396530,Yes,3407,399937,1,1140,401097,2,2090,403201,1,720,403937,TrialList,交易是一首轻松的音乐。,29,1,10
Tweet_Rating_Chinese_Right,43,1,18-30,"<?xml version=""1.0""?>\n<Clock xmlns:dt=""urn:schemas-microsoft-com:datatypes""><Description dt:dt=""string"">E-Prime Primary Realtime Clock</Description><StartTime><Timestamp dt:dt=""int"">0</Timestamp><DateUtc dt:dt=""string"">2015-05-26T11:04:15Z</DateUtc></StartTime><FrequencyChanges><FrequencyChange><Frequency dt:dt=""r8"">3312890</Frequency><Timestamp dt:dt=""r8"">38967280877</Timestamp><Current dt:dt=""r8"">0</Current><DateUtc dt:dt=""string"">2015-05-26T11:04:15Z</DateUtc></FrequencyChange></FrequencyChanges></Clock>\n",Tweet_Rating_Chinese_Right-43-1,59.822,1.0.0.374,中文,1,研究生,313235464,Professional,2.0.10.353,2.0.10.353,05-26-2015,2015-05-26T11:04:00Z,12:04:15.000000,女,2.0.10.248,4,4,1,4,BlockProc,BlockList,11,1,2,2,1,0,18,2,1,NA,NA,NA,TrialProc,410238,Yes,3498,413736,2,1627,415392,4,2020,417440,0,2453,419912,TrialList,宗教是一种著名的艺术。,18,1,11
Tweet_Rating_Chinese_Right,43,1,18-30,"<?xml version=""1.0""?>\n<Clock xmlns:dt=""urn:schemas-microsoft-com:datatypes""><Description dt:dt=""string"">E-Prime Primary Realtime Clock</Description><StartTime><Timestamp dt:dt=""int"">0</Timestamp><DateUtc dt:dt=""string"">2015-05-26T11:04:15Z</DateUtc></StartTime><FrequencyChanges><FrequencyChange><Frequency dt:dt=""r8"">3312890</Frequency><Timestamp dt:dt=""r8"">38967280877</Timestamp><Current dt:dt=""r8"">0</Current><DateUtc dt:dt=""string"">2015-05-26T11:04:15Z</DateUtc></FrequencyChange></FrequencyChanges></Clock>\n",Tweet_Rating_Chinese_Right-43-1,59.822,1.0.0.374,中文,1,研究生,313235464,Professional,2.0.10.353,2.0.10.353,05-26-2015,2015-05-26T11:04:00Z,12:04:15.000000,女,2.0.10.248,4,4,1,4,BlockProc,BlockList,12,0,2,2,2,1,60,1,1,NA,NA,NA,TrialProc,424146,Yes,3518,427664,1,958,428648,3,4596,433272,0,342,433632,TrialList,教育是一个发光的灯笼。,60,1,12
Tweet_Rating_Chinese_Right,43,1,18-30,"<?xml version=""1.0""?>\n<Clock xmlns:dt=""urn:schemas-microsoft-com:datatypes""><Description dt:dt=""string"">E-Prime Primary Realtime Clock</Description><StartTime><Timestamp dt:dt=""int"">0</Timestamp><DateUtc dt:dt=""string"">2015-05-26T11:04:15Z</DateUtc></StartTime><FrequencyChanges><FrequencyChange><Frequency dt:dt=""r8"">3312890</Frequency><Timestamp dt:dt=""r8"">38967280877</Timestamp><Current dt:dt=""r8"">0</Current><DateUtc dt:dt=""string"">2015-05-26T11:04:15Z</DateUtc></FrequencyChange></FrequencyChanges></Clock>\n",Tweet_Rating_Chinese_Right-43-1,59.822,1.0.0.374,中文,1,研究生,313235464,Professional,2.0.10.353,2.0.10.353,05-26-2015,2015-05-26T11:04:00Z,12:04:15.000000,女,2.0.10.248,4,4,1,4,BlockProc,BlockList,13,0,1,1,2,0,30,2,2,NA,NA,NA,TrialProc,438188,Yes,1459,439647,1,1044,440719,3,1398,442143,0,3097,445263,TrialList,音乐是温暖的光。,30,1,13
Tweet_Rating_Chinese_Right,43,1,18-30,"<?xml version=""1.0""?>\n<Clock xmlns:dt=""urn:schemas-microsoft-com:datatypes""><Description dt:dt=""string"">E-Prime Primary Realtime Clock</Description><StartTime><Timestamp dt:dt=""int"">0</Timestamp><DateUtc dt:dt=""string"">2015-05-26T11:04:15Z</DateUtc></StartTime><FrequencyChanges><FrequencyChange><Frequency dt:dt=""r8"">3312890</Frequency><Timestamp dt:dt=""r8"">38967280877</Timestamp><Current dt:dt=""r8"">0</Current><DateUtc dt:dt=""string"">2015-05-26T11:04:15Z</DateUtc></FrequencyChange></FrequencyChanges></Clock>\n",Tweet_Rating_Chinese_Right-43-1,59.822,1.0.0.374,中文,1,研究生,313235464,Professional,2.0.10.353,2.0.10.353,05-26-2015,2015-05-26T11:04:00Z,12:04:15.000000,女,2.0.10.248,4,4,1,4,BlockProc,BlockList,14,0,2,1,2,0,28,2,2,NA,NA,NA,TrialProc,449404,Yes,6091,455495,1,1108,456631,3,3348,460007,0,611,460647,TrialList,爱情是闪闪发光的彩虹。,28,1,14
Tweet_Rating_Chinese_Right,43,1,18-30,"<?xml version=""1.0""?>\n<Clock xmlns:dt=""urn:schemas-microsoft-com:datatypes""><Description dt:dt=""string"">E-Prime Primary Realtime Clock</Description><StartTime><Timestamp dt:dt=""int"">0</Timestamp><DateUtc dt:dt=""string"">2015-05-26T11:04:15Z</DateUtc></StartTime><FrequencyChanges><FrequencyChange><Frequency dt:dt=""r8"">3312890</Frequency><Timestamp dt:dt=""r8"">38967280877</Timestamp><Current dt:dt=""r8"">0</Current><DateUtc dt:dt=""string"">2015-05-26T11:04:15Z</DateUtc></FrequencyChange></FrequencyChanges></Clock>\n",Tweet_Rating_Chinese_Right-43-1,59.822,1.0.0.374,中文,1,研究生,313235464,Professional,2.0.10.353,2.0.10.353,05-26-2015,2015-05-26T11:04:00Z,12:04:15.000000,女,2.0.10.248,4,4,1,4,BlockProc,BlockList,15,1,1,3,2,0,40,3,2,NA,NA,NA,TrialProc,466639,Yes,3351,469990,1,1886,471902,3,1309,473230,0,627,473886,TrialList,疼痛是一种诱人的美。,40,1,15
Tweet_Rating_Chinese_Right,43,1,18-30,"<?xml version=""1.0""?>\n<Clock xmlns:dt=""urn:schemas-microsoft-com:datatypes""><Description dt:dt=""string"">E-Prime Primary Realtime Clock</Description><StartTime><Timestamp dt:dt=""int"">0</Timestamp><DateUtc dt:dt=""string"">2015-05-26T11:04:15Z</DateUtc></StartTime><FrequencyChanges><FrequencyChange><Frequency dt:dt=""r8"">3312890</Frequency><Timestamp dt:dt=""r8"">38967280877</Timestamp><Current dt:dt=""r8"">0</Current><DateUtc dt:dt=""string"">2015-05-26T11:04:15Z</DateUtc></FrequencyChange></FrequencyChanges></Clock>\n",Tweet_Rating_Chinese_Right-43-1,59.822,1.0.0.374,中文,1,研究生,313235464,Professional,2.0.10.353,2.0.10.353,05-26-2015,2015-05-26T11:04:00Z,12:04:15.000000,女,2.0.10.248,4,4,1,4,BlockProc,BlockList,16,0,1,1,2,0,44,3,3,NA,NA,NA,TrialProc,478474,Yes,4764,483238,1,1007,484262,2,5194,489469,0,723,490213,TrialList,阻力是变暖的光。,44,1,16
Tweet_Rating_Chinese_Right,43,1,18-30,"<?xml version=""1.0""?>\n<Clock xmlns:dt=""urn:schemas-microsoft-com:datatypes""><Description dt:dt=""string"">E-Prime Primary Realtime Clock</Description><StartTime><Timestamp dt:dt=""int"">0</Timestamp><DateUtc dt:dt=""string"">2015-05-26T11:04:15Z</DateUtc></StartTime><FrequencyChanges><FrequencyChange><Frequency dt:dt=""r8"">3312890</Frequency><Timestamp dt:dt=""r8"">38967280877</Timestamp><Current dt:dt=""r8"">0</Current><DateUtc dt:dt=""string"">2015-05-26T11:04:15Z</DateUtc></FrequencyChange></FrequencyChanges></Clock>\n",Tweet_Rating_Chinese_Right-43-1,59.822,1.0.0.374,中文,1,研究生,313235464,Professional,2.0.10.353,2.0.10.353,05-26-2015,2015-05-26T11:04:00Z,12:04:15.000000,女,2.0.10.248,4,4,1,4,BlockProc,BlockList,17,0,1,1,2,0,33,2,2,NA,NA,NA,TrialProc,494438,Yes,4775,499213,1,1337,500573,3,2335,502925,0,458,503405,TrialList,编程是一个珍贵的艺术品。,33,1,17
Tweet_Rating_Chinese_Right,43,1,18-30,"<?xml version=""1.0""?>\n<Clock xmlns:dt=""urn:schemas-microsoft-com:datatypes""><Description dt:dt=""string"">E-Prime Primary Realtime Clock</Description><StartTime><Timestamp dt:dt=""int"">0</Timestamp><DateUtc dt:dt=""string"">2015-05-26T11:04:15Z</DateUtc></StartTime><FrequencyChanges><FrequencyChange><Frequency dt:dt=""r8"">3312890</Frequency><Timestamp dt:dt=""r8"">38967280877</Timestamp><Current dt:dt=""r8"">0</Current><DateUtc dt:dt=""string"">2015-05-26T11:04:15Z</DateUtc></FrequencyChange></FrequencyChanges></Clock>\n",Tweet_Rating_Chinese_Right-43-1,59.822,1.0.0.374,中文,1,研究生,313235464,Professional,2.0.10.353,2.0.10.353,05-26-2015,2015-05-26T11:04:00Z,12:04:15.000000,女,2.0.10.248,4,4,1,4,BlockProc,BlockList,18,0,2,1,1,0,7,1,1,NA,NA,NA,TrialProc,507628,Yes,6153,513781,2,1368,515164,4,1325,516508,1,1587,518124,TrialList,语言是一种著名的艺术。,7,1,18
Tweet_Rating_Chinese_Right,43,1,18-30,"<?xml version=""1.0""?>\n<Clock xmlns:dt=""urn:schemas-microsoft-com:datatypes""><Description dt:dt=""string"">E-Prime Primary Realtime Clock</Description><StartTime><Timestamp dt:dt=""int"">0</Timestamp><DateUtc dt:dt=""string"">2015-05-26T11:04:15Z</DateUtc></StartTime><FrequencyChanges><FrequencyChange><Frequency dt:dt=""r8"">3312890</Frequency><Timestamp dt:dt=""r8"">38967280877</Timestamp><Current dt:dt=""r8"">0</Current><DateUtc dt:dt=""string"">2015-05-26T11:04:15Z</DateUtc></FrequencyChange></FrequencyChanges></Clock>\n",Tweet_Rating_Chinese_Right-43-1,59.822,1.0.0.374,中文,1,研究生,313235464,Professional,2.0.10.353,2.0.10.353,05-26-2015,2015-05-26T11:04:00Z,12:04:15.000000,女,2.0.10.248,4,4,1,4,BlockProc,BlockList,19,0,1,1,2,0,32,2,2,NA,NA,NA,TrialProc,523191,Yes,4949,528140,2,977,529132,4,2878,532036,0,762,532812,TrialList,技术是温暖的光。,32,1,19
Tweet_Rating_Chinese_Right,43,1,18-30,"<?xml version=""1.0""?>\n<Clock xmlns:dt=""urn:schemas-microsoft-com:datatypes""><Description dt:dt=""string"">E-Prime Primary Realtime Clock</Description><StartTime><Timestamp dt:dt=""int"">0</Timestamp><DateUtc dt:dt=""string"">2015-05-26T11:04:15Z</DateUtc></StartTime><FrequencyChanges><FrequencyChange><Frequency dt:dt=""r8"">3312890</Frequency><Timestamp dt:dt=""r8"">38967280877</Timestamp><Current dt:dt=""r8"">0</Current><DateUtc dt:dt=""string"">2015-05-26T11:04:15Z</DateUtc></FrequencyChange></FrequencyChanges></Clock>\n",Tweet_Rating_Chinese_Right-43-1,59.822,1.0.0.374,中文,1,研究生,313235464,Professional,2.0.10.353,2.0.10.353,05-26-2015,2015-05-26T11:04:00Z,12:04:15.000000,女,2.0.10.248,4,4,1,4,BlockProc,BlockList,20,0,1,2,2,0,16,2,2,NA,NA,NA,TrialProc,538001,No,4018,542019,NA,0,0,2,3788,545835,0,793,546651,TrialList,权力是一种温暖的光。,16,1,20
Tweet_Rating_Chinese_Right,43,1,18-30,"<?xml version=""1.0""?>\n<Clock xmlns:dt=""urn:schemas-microsoft-com:datatypes""><Description dt:dt=""string"">E-Prime Primary Realtime Clock</Description><StartTime><Timestamp dt:dt=""int"">0</Timestamp><DateUtc dt:dt=""string"">2015-05-26T11:04:15Z</DateUtc></StartTime><FrequencyChanges><FrequencyChange><Frequency dt:dt=""r8"">3312890</Frequency><Timestamp dt:dt=""r8"">38967280877</Timestamp><Current dt:dt=""r8"">0</Current><DateUtc dt:dt=""string"">2015-05-26T11:04:15Z</DateUtc></FrequencyChange></FrequencyChanges></Clock>\n",Tweet_Rating_Chinese_Right-43-1,59.822,1.0.0.374,中文,1,研究生,313235464,Professional,2.0.10.353,2.0.10.353,05-26-2015,2015-05-26T11:04:00Z,12:04:15.000000,女,2.0.10.248,4,4,1,4,BlockProc,BlockList,21,0,2,1,1,0,8,3,3,NA,NA,NA,TrialProc,551274,No,2609,553883,NA,0,0,1,1912,555811,0,1133,556971,TrialList,战争是温柔的爱。,8,1,21
Tweet_Rating_Chinese_Right,43,1,18-30,"<?xml version=""1.0""?>\n<Clock xmlns:dt=""urn:schemas-microsoft-com:datatypes""><Description dt:dt=""string"">E-Prime Primary Realtime Clock</Description><StartTime><Timestamp dt:dt=""int"">0</Timestamp><DateUtc dt:dt=""string"">2015-05-26T11:04:15Z</DateUtc></StartTime><FrequencyChanges><FrequencyChange><Frequency dt:dt=""r8"">3312890</Frequency><Timestamp dt:dt=""r8"">38967280877</Timestamp><Current dt:dt=""r8"">0</Current><DateUtc dt:dt=""string"">2015-05-26T11:04:15Z</DateUtc></FrequencyChange></FrequencyChanges></Clock>\n",Tweet_Rating_Chinese_Right-43-1,59.822,1.0.0.374,中文,1,研究生,313235464,Professional,2.0.10.353,2.0.10.353,05-26-2015,2015-05-26T11:04:00Z,12:04:15.000000,女,2.0.10.248,4,4,1,4,BlockProc,BlockList,22,0,1,2,2,0,46,1,1,NA,NA,NA,TrialProc,563477,Yes,4157,567634,3,1106,568762,5,1874,570650,1,3321,573986,TrialList,想象是一种有吸引力的美。,46,1,22
Tweet_Rating_Chinese_Right,43,1,18-30,"<?xml version=""1.0""?>\n<Clock xmlns:dt=""urn:schemas-microsoft-com:datatypes""><Description dt:dt=""string"">E-Prime Primary Realtime Clock</Description><StartTime><Timestamp dt:dt=""int"">0</Timestamp><DateUtc dt:dt=""string"">2015-05-26T11:04:15Z</DateUtc></StartTime><FrequencyChanges><FrequencyChange><Frequency dt:dt=""r8"">3312890</Frequency><Timestamp dt:dt=""r8"">38967280877</Timestamp><Current dt:dt=""r8"">0</Current><DateUtc dt:dt=""string"">2015-05-26T11:04:15Z</DateUtc></FrequencyChange></FrequencyChanges></Clock>\n",Tweet_Rating_Chinese_Right-43-1,59.822,1.0.0.374,中文,1,研究生,313235464,Professional,2.0.10.353,2.0.10.353,05-26-2015,2015-05-26T11:04:00Z,12:04:15.000000,女,2.0.10.248,4,4,1,4,BlockProc,BlockList,23,0,1,1,2,0,21,2,2,NA,NA,NA,TrialProc,577987,Yes,3783,581770,2,1324,583122,4,1794,584930,0,348,585306,TrialList,教学是温暖的光。,21,1,23
Tweet_Rating_Chinese_Right,43,1,18-30,"<?xml version=""1.0""?>\n<Clock xmlns:dt=""urn:schemas-microsoft-com:datatypes""><Description dt:dt=""string"">E-Prime Primary Realtime Clock</Description><StartTime><Timestamp dt:dt=""int"">0</Timestamp><DateUtc dt:dt=""string"">2015-05-26T11:04:15Z</DateUtc></StartTime><FrequencyChanges><FrequencyChange><Frequency dt:dt=""r8"">3312890</Frequency><Timestamp dt:dt=""r8"">38967280877</Timestamp><Current dt:dt=""r8"">0</Current><DateUtc dt:dt=""string"">2015-05-26T11:04:15Z</DateUtc></FrequencyChange></FrequencyChanges></Clock>\n",Tweet_Rating_Chinese_Right-43-1,59.822,1.0.0.374,中文,1,研究生,313235464,Professional,2.0.10.353,2.0.10.353,05-26-2015,2015-05-26T11:04:00Z,12:04:15.000000,女,2.0.10.248,4,4,1,4,BlockProc,BlockList,24,1,1,1,2,0,17,3,2,NA,NA,NA,TrialProc,589404,Yes,1206,590610,2,1785,592410,4,1131,593561,0,290,593873,TrialList,创作是温暖的光。,17,1,24
Tweet_Rating_Chinese_Right,43,1,18-30,"<?xml version=""1.0""?>\n<Clock xmlns:dt=""urn:schemas-microsoft-com:datatypes""><Description dt:dt=""string"">E-Prime Primary Realtime Clock</Description><StartTime><Timestamp dt:dt=""int"">0</Timestamp><DateUtc dt:dt=""string"">2015-05-26T11:04:15Z</DateUtc></StartTime><FrequencyChanges><FrequencyChange><Frequency dt:dt=""r8"">3312890</Frequency><Timestamp dt:dt=""r8"">38967280877</Timestamp><Current dt:dt=""r8"">0</Current><DateUtc dt:dt=""string"">2015-05-26T11:04:15Z</DateUtc></FrequencyChange></FrequencyChanges></Clock>\n",Tweet_Rating_Chinese_Right-43-1,59.822,1.0.0.374,中文,1,研究生,313235464,Professional,2.0.10.353,2.0.10.353,05-26-2015,2015-05-26T11:04:00Z,12:04:15.000000,女,2.0.10.248,4,4,1,4,BlockProc,BlockList,25,0,1,3,2,0,3,3,3,NA,NA,NA,TrialProc,599735,Yes,6290,606025,1,1267,607321,3,1068,608409,0,309,608737,TrialList,生意是一杯纯净水。,3,1,25
Tweet_Rating_Chinese_Right,43,1,18-30,"<?xml version=""1.0""?>\n<Clock xmlns:dt=""urn:schemas-microsoft-com:datatypes""><Description dt:dt=""string"">E-Prime Primary Realtime Clock</Description><StartTime><Timestamp dt:dt=""int"">0</Timestamp><DateUtc dt:dt=""string"">2015-05-26T11:04:15Z</DateUtc></StartTime><FrequencyChanges><FrequencyChange><Frequency dt:dt=""r8"">3312890</Frequency><Timestamp dt:dt=""r8"">38967280877</Timestamp><Current dt:dt=""r8"">0</Current><DateUtc dt:dt=""string"">2015-05-26T11:04:15Z</DateUtc></FrequencyChange></FrequencyChanges></Clock>\n",Tweet_Rating_Chinese_Right-43-1,59.822,1.0.0.374,中文,1,研究生,313235464,Professional,2.0.10.353,2.0.10.353,05-26-2015,2015-05-26T11:04:00Z,12:04:15.000000,女,2.0.10.248,4,4,1,4,BlockProc,BlockList,26,0,2,1,2,0,20,3,3,NA,NA,NA,TrialProc,613108,No,2901,616009,NA,0,0,2,1455,617489,0,1136,618641,TrialList,战争是令人兴奋的爱。,20,1,26
Tweet_Rating_Chinese_Right,43,1,18-30,"<?xml version=""1.0""?>\n<Clock xmlns:dt=""urn:schemas-microsoft-com:datatypes""><Description dt:dt=""string"">E-Prime Primary Realtime Clock</Description><StartTime><Timestamp dt:dt=""int"">0</Timestamp><DateUtc dt:dt=""string"">2015-05-26T11:04:15Z</DateUtc></StartTime><FrequencyChanges><FrequencyChange><Frequency dt:dt=""r8"">3312890</Frequency><Timestamp dt:dt=""r8"">38967280877</Timestamp><Current dt:dt=""r8"">0</Current><DateUtc dt:dt=""string"">2015-05-26T11:04:15Z</DateUtc></FrequencyChange></FrequencyChanges></Clock>\n",Tweet_Rating_Chinese_Right-43-1,59.822,1.0.0.374,中文,1,研究生,313235464,Professional,2.0.10.353,2.0.10.353,05-26-2015,2015-05-26T11:04:00Z,12:04:15.000000,女,2.0.10.248,4,4,1,4,BlockProc,BlockList,27,0,2,2,2,0,25,2,2,NA,NA,NA,TrialProc,622653,Yes,4115,626768,2,1217,628016,3,1212,629248,0,311,629584,TrialList,食物是一首愉快的音乐。,25,1,27
Tweet_Rating_Chinese_Right,43,1,18-30,"<?xml version=""1.0""?>\n<Clock xmlns:dt=""urn:schemas-microsoft-com:datatypes""><Description dt:dt=""string"">E-Prime Primary Realtime Clock</Description><StartTime><Timestamp dt:dt=""int"">0</Timestamp><DateUtc dt:dt=""string"">2015-05-26T11:04:15Z</DateUtc></StartTime><FrequencyChanges><FrequencyChange><Frequency dt:dt=""r8"">3312890</Frequency><Timestamp dt:dt=""r8"">38967280877</Timestamp><Current dt:dt=""r8"">0</Current><DateUtc dt:dt=""string"">2015-05-26T11:04:15Z</DateUtc></FrequencyChange></FrequencyChanges></Clock>\n",Tweet_Rating_Chinese_Right-43-1,59.822,1.0.0.374,中文,1,研究生,313235464,Professional,2.0.10.353,2.0.10.353,05-26-2015,2015-05-26T11:04:00Z,12:04:15.000000,女,2.0.10.248,4,4,1,4,BlockProc,BlockList,28,1,1,2,2,0,9,3,2,NA,NA,NA,TrialProc,634087,No,6425,640512,NA,0,0,2,1036,641576,0,663,642256,TrialList,权力是一团安慰的火。,9,1,28
Tweet_Rating_Chinese_Right,43,1,18-30,"<?xml version=""1.0""?>\n<Clock xmlns:dt=""urn:schemas-microsoft-com:datatypes""><Description dt:dt=""string"">E-Prime Primary Realtime Clock</Description><StartTime><Timestamp dt:dt=""int"">0</Timestamp><DateUtc dt:dt=""string"">2015-05-26T11:04:15Z</DateUtc></StartTime><FrequencyChanges><FrequencyChange><Frequency dt:dt=""r8"">3312890</Frequency><Timestamp dt:dt=""r8"">38967280877</Timestamp><Current dt:dt=""r8"">0</Current><DateUtc dt:dt=""string"">2015-05-26T11:04:15Z</DateUtc></FrequencyChange></FrequencyChanges></Clock>\n",Tweet_Rating_Chinese_Right-43-1,59.822,1.0.0.374,中文,1,研究生,313235464,Professional,2.0.10.353,2.0.10.353,05-26-2015,2015-05-26T11:04:00Z,12:04:15.000000,女,2.0.10.248,4,4,1,4,BlockProc,BlockList,29,0,2,3,2,0,36,1,1,NA,NA,NA,TrialProc,646641,Yes,5038,651679,2,1053,652759,3,1135,653911,0,669,654599,TrialList,爱情是一首舒缓的音乐。,36,1,29
Tweet_Rating_Chinese_Right,43,1,18-30,"<?xml version=""1.0""?>\n<Clock xmlns:dt=""urn:schemas-microsoft-com:datatypes""><Description dt:dt=""string"">E-Prime Primary Realtime Clock</Description><StartTime><Timestamp dt:dt=""int"">0</Timestamp><DateUtc dt:dt=""string"">2015-05-26T11:04:15Z</DateUtc></StartTime><FrequencyChanges><FrequencyChange><Frequency dt:dt=""r8"">3312890</Frequency><Timestamp dt:dt=""r8"">38967280877</Timestamp><Current dt:dt=""r8"">0</Current><DateUtc dt:dt=""string"">2015-05-26T11:04:15Z</DateUtc></FrequencyChange></FrequencyChanges></Clock>\n",Tweet_Rating_Chinese_Right-43-1,59.822,1.0.0.374,中文,1,研究生,313235464,Professional,2.0.10.353,2.0.10.353,05-26-2015,2015-05-26T11:04:00Z,12:04:15.000000,女,2.0.10.248,4,4,1,4,BlockProc,BlockList,30,0,1,2,1,0,45,3,3,NA,NA,NA,TrialProc,659062,Yes,4633,663695,2,970,664679,4,5008,669703,0,3903,673630,TrialList,安全是令人振奋的能量。,45,1,30
Tweet_Rating_Chinese_Right,43,1,18-30,"<?xml version=""1.0""?>\n<Clock xmlns:dt=""urn:schemas-microsoft-com:datatypes""><Description dt:dt=""string"">E-Prime Primary Realtime Clock</Description><StartTime><Timestamp dt:dt=""int"">0</Timestamp><DateUtc dt:dt=""string"">2015-05-26T11:04:15Z</DateUtc></StartTime><FrequencyChanges><FrequencyChange><Frequency dt:dt=""r8"">3312890</Frequency><Timestamp dt:dt=""r8"">38967280877</Timestamp><Current dt:dt=""r8"">0</Current><DateUtc dt:dt=""string"">2015-05-26T11:04:15Z</DateUtc></FrequencyChange></FrequencyChanges></Clock>\n",Tweet_Rating_Chinese_Right-43-1,59.822,1.0.0.374,中文,1,研究生,313235464,Professional,2.0.10.353,2.0.10.353,05-26-2015,2015-05-26T11:04:00Z,12:04:15.000000,女,2.0.10.248,4,4,1,4,BlockProc,BlockList,31,0,2,1,1,1,54,1,1,NA,NA,NA,TrialProc,679171,Yes,3427,682598,2,1071,683686,4,2128,685830,0,468,686326,TrialList,睡眠是一片汪洋大海。,54,1,31
Tweet_Rating_Chinese_Right,43,1,18-30,"<?xml version=""1.0""?>\n<Clock xmlns:dt=""urn:schemas-microsoft-com:datatypes""><Description dt:dt=""string"">E-Prime Primary Realtime Clock</Description><StartTime><Timestamp dt:dt=""int"">0</Timestamp><DateUtc dt:dt=""string"">2015-05-26T11:04:15Z</DateUtc></StartTime><FrequencyChanges><FrequencyChange><Frequency dt:dt=""r8"">3312890</Frequency><Timestamp dt:dt=""r8"">38967280877</Timestamp><Current dt:dt=""r8"">0</Current><DateUtc dt:dt=""string"">2015-05-26T11:04:15Z</DateUtc></FrequencyChange></FrequencyChanges></Clock>\n",Tweet_Rating_Chinese_Right-43-1,59.822,1.0.0.374,中文,1,研究生,313235464,Professional,2.0.10.353,2.0.10.353,05-26-2015,2015-05-26T11:04:00Z,12:04:15.000000,女,2.0.10.248,4,4,1,4,BlockProc,BlockList,32,1,2,2,2,0,34,2,1,NA,NA,NA,TrialProc,690522,No,3460,693982,NA,0,0,3,2399,696398,0,527,696950,TrialList,命运是一个可爱的天堂。,34,1,32
Tweet_Rating_Chinese_Right,43,1,18-30,"<?xml version=""1.0""?>\n<Clock xmlns:dt=""urn:schemas-microsoft-com:datatypes""><Description dt:dt=""string"">E-Prime Primary Realtime Clock</Description><StartTime><Timestamp dt:dt=""int"">0</Timestamp><DateUtc dt:dt=""string"">2015-05-26T11:04:15Z</DateUtc></StartTime><FrequencyChanges><FrequencyChange><Frequency dt:dt=""r8"">3312890</Frequency><Timestamp dt:dt=""r8"">38967280877</Timestamp><Current dt:dt=""r8"">0</Current><DateUtc dt:dt=""string"">2015-05-26T11:04:15Z</DateUtc></FrequencyChange></FrequencyChanges></Clock>\n",Tweet_Rating_Chinese_Right-43-1,59.822,1.0.0.374,中文,1,研究生,313235464,Professional,2.0.10.353,2.0.10.353,05-26-2015,2015-05-26T11:04:00Z,12:04:15.000000,女,2.0.10.248,4,4,1,4,BlockProc,BlockList,33,0,1,3,3,1,59,2,2,NA,NA,NA,TrialProc,701371,Yes,2354,703725,2,933,704677,3,1420,706117,1,2686,708821,TrialList,愤怒是一场寒冷的暴风雪。,59,1,33
Tweet_Rating_Chinese_Right,43,1,18-30,"<?xml version=""1.0""?>\n<Clock xmlns:dt=""urn:schemas-microsoft-com:datatypes""><Description dt:dt=""string"">E-Prime Primary Realtime Clock</Description><StartTime><Timestamp dt:dt=""int"">0</Timestamp><DateUtc dt:dt=""string"">2015-05-26T11:04:15Z</DateUtc></StartTime><FrequencyChanges><FrequencyChange><Frequency dt:dt=""r8"">3312890</Frequency><Timestamp dt:dt=""r8"">38967280877</Timestamp><Current dt:dt=""r8"">0</Current><DateUtc dt:dt=""string"">2015-05-26T11:04:15Z</DateUtc></FrequencyChange></FrequencyChanges></Clock>\n",Tweet_Rating_Chinese_Right-43-1,59.822,1.0.0.374,中文,1,研究生,313235464,Professional,2.0.10.353,2.0.10.353,05-26-2015,2015-05-26T11:04:00Z,12:04:15.000000,女,2.0.10.248,4,4,1,4,BlockProc,BlockList,34,0,2,2,3,0,42,2,2,NA,NA,NA,TrialProc,713256,Yes,2965,716221,2,869,717117,3,1303,718437,1,9245,727700,TrialList,写作是一种舒缓的愈合。,42,1,34
Tweet_Rating_Chinese_Right,43,1,18-30,"<?xml version=""1.0""?>\n<Clock xmlns:dt=""urn:schemas-microsoft-com:datatypes""><Description dt:dt=""string"">E-Prime Primary Realtime Clock</Description><StartTime><Timestamp dt:dt=""int"">0</Timestamp><DateUtc dt:dt=""string"">2015-05-26T11:04:15Z</DateUtc></StartTime><FrequencyChanges><FrequencyChange><Frequency dt:dt=""r8"">3312890</Frequency><Timestamp dt:dt=""r8"">38967280877</Timestamp><Current dt:dt=""r8"">0</Current><DateUtc dt:dt=""string"">2015-05-26T11:04:15Z</DateUtc></FrequencyChange></FrequencyChanges></Clock>\n",Tweet_Rating_Chinese_Right-43-1,59.822,1.0.0.374,中文,1,研究生,313235464,Professional,2.0.10.353,2.0.10.353,05-26-2015,2015-05-26T11:04:00Z,12:04:15.000000,女,2.0.10.248,4,4,1,4,BlockProc,BlockList,35,1,2,1,2,0,49,3,1,NA,NA,NA,TrialProc,733667,No,5305,738972,NA,0,0,2,2581,741580,0,1837,743444,TrialList,血液是一杯诱人的葡萄酒。,49,1,35
Tweet_Rating_Chinese_Right,43,1,18-30,"<?xml version=""1.0""?>\n<Clock xmlns:dt=""urn:schemas-microsoft-com:datatypes""><Description dt:dt=""string"">E-Prime Primary Realtime Clock</Description><StartTime><Timestamp dt:dt=""int"">0</Timestamp><DateUtc dt:dt=""string"">2015-05-26T11:04:15Z</DateUtc></StartTime><FrequencyChanges><FrequencyChange><Frequency dt:dt=""r8"">3312890</Frequency><Timestamp dt:dt=""r8"">38967280877</Timestamp><Current dt:dt=""r8"">0</Current><DateUtc dt:dt=""string"">2015-05-26T11:04:15Z</DateUtc></FrequencyChange></FrequencyChanges></Clock>\n",Tweet_Rating_Chinese_Right-43-1,59.822,1.0.0.374,中文,1,研究生,313235464,Professional,2.0.10.353,2.0.10.353,05-26-2015,2015-05-26T11:04:00Z,12:04:15.000000,女,2.0.10.248,4,4,1,4,BlockProc,BlockList,36,0,2,1,1,0,12,1,1,NA,NA,NA,TrialProc,749029,Yes,2446,751475,2,3428,754931,4,1120,756067,1,1951,758035,TrialList,生活是一场愉快的喜剧。,12,1,36
Tweet_Rating_Chinese_Right,43,1,18-30,"<?xml version=""1.0""?>\n<Clock xmlns:dt=""urn:schemas-microsoft-com:datatypes""><Description dt:dt=""string"">E-Prime Primary Realtime Clock</Description><StartTime><Timestamp dt:dt=""int"">0</Timestamp><DateUtc dt:dt=""string"">2015-05-26T11:04:15Z</DateUtc></StartTime><FrequencyChanges><FrequencyChange><Frequency dt:dt=""r8"">3312890</Frequency><Timestamp dt:dt=""r8"">38967280877</Timestamp><Current dt:dt=""r8"">0</Current><DateUtc dt:dt=""string"">2015-05-26T11:04:15Z</DateUtc></FrequencyChange></FrequencyChanges></Clock>\n",Tweet_Rating_Chinese_Right-43-1,59.822,1.0.0.374,中文,1,研究生,313235464,Professional,2.0.10.353,2.0.10.353,05-26-2015,2015-05-26T11:04:00Z,12:04:15.000000,女,2.0.10.248,4,4,1,4,BlockProc,BlockList,37,0,2,2,2,0,6,1,1,NA,NA,NA,TrialProc,762152,Yes,3235,765387,2,1912,767323,4,1205,768555,0,624,769195,TrialList,艺术是一种温柔的爱。,6,1,37
Tweet_Rating_Chinese_Right,43,1,18-30,"<?xml version=""1.0""?>\n<Clock xmlns:dt=""urn:schemas-microsoft-com:datatypes""><Description dt:dt=""string"">E-Prime Primary Realtime Clock</Description><StartTime><Timestamp dt:dt=""int"">0</Timestamp><DateUtc dt:dt=""string"">2015-05-26T11:04:15Z</DateUtc></StartTime><FrequencyChanges><FrequencyChange><Frequency dt:dt=""r8"">3312890</Frequency><Timestamp dt:dt=""r8"">38967280877</Timestamp><Current dt:dt=""r8"">0</Current><DateUtc dt:dt=""string"">2015-05-26T11:04:15Z</DateUtc></FrequencyChange></FrequencyChanges></Clock>\n",Tweet_Rating_Chinese_Right-43-1,59.822,1.0.0.374,中文,1,研究生,313235464,Professional,2.0.10.353,2.0.10.353,05-26-2015,2015-05-26T11:04:00Z,12:04:15.000000,女,2.0.10.248,4,4,1,4,BlockProc,BlockList,38,1,1,2,1,1,53,3,2,NA,NA,NA,TrialProc,773418,Yes,2761,776179,3,1265,777458,5,1209,778690,1,564,779282,TrialList,时间是一个很好的医生。,53,1,38
Tweet_Rating_Chinese_Right,43,1,18-30,"<?xml version=""1.0""?>\n<Clock xmlns:dt=""urn:schemas-microsoft-com:datatypes""><Description dt:dt=""string"">E-Prime Primary Realtime Clock</Description><StartTime><Timestamp dt:dt=""int"">0</Timestamp><DateUtc dt:dt=""string"">2015-05-26T11:04:15Z</DateUtc></StartTime><FrequencyChanges><FrequencyChange><Frequency dt:dt=""r8"">3312890</Frequency><Timestamp dt:dt=""r8"">38967280877</Timestamp><Current dt:dt=""r8"">0</Current><DateUtc dt:dt=""string"">2015-05-26T11:04:15Z</DateUtc></FrequencyChange></FrequencyChanges></Clock>\n",Tweet_Rating_Chinese_Right-43-1,59.822,1.0.0.374,中文,1,研究生,313235464,Professional,2.0.10.353,2.0.10.353,05-26-2015,2015-05-26T11:04:00Z,12:04:15.000000,女,2.0.10.248,4,4,1,4,BlockProc,BlockList,39,0,1,2,2,0,11,1,1,NA,NA,NA,TrialProc,784852,Yes,2446,787298,2,1068,788394,3,1229,789642,0,1751,791418,TrialList,爱情是一把安慰的火。,11,1,39
Tweet_Rating_Chinese_Right,43,1,18-30,"<?xml version=""1.0""?>\n<Clock xmlns:dt=""urn:schemas-microsoft-com:datatypes""><Description dt:dt=""string"">E-Prime Primary Realtime Clock</Description><StartTime><Timestamp dt:dt=""int"">0</Timestamp><DateUtc dt:dt=""string"">2015-05-26T11:04:15Z</DateUtc></StartTime><FrequencyChanges><FrequencyChange><Frequency dt:dt=""r8"">3312890</Frequency><Timestamp dt:dt=""r8"">38967280877</Timestamp><Current dt:dt=""r8"">0</Current><DateUtc dt:dt=""string"">2015-05-26T11:04:15Z</DateUtc></FrequencyChange></FrequencyChanges></Clock>\n",Tweet_Rating_Chinese_Right-43-1,59.822,1.0.0.374,中文,1,研究生,313235464,Professional,2.0.10.353,2.0.10.353,05-26-2015,2015-05-26T11:04:00Z,12:04:15.000000,女,2.0.10.248,4,4,1,4,BlockProc,BlockList,40,0,2,2,2,1,58,2,2,NA,NA,NA,TrialProc,796286,Yes,1516,797802,3,1002,798826,5,1134,799978,1,629,800626,TrialList,历史是一面破碎的镜子。,58,1,40
Tweet_Rating_Chinese_Right,43,1,18-30,"<?xml version=""1.0""?>\n<Clock xmlns:dt=""urn:schemas-microsoft-com:datatypes""><Description dt:dt=""string"">E-Prime Primary Realtime Clock</Description><StartTime><Timestamp dt:dt=""int"">0</Timestamp><DateUtc dt:dt=""string"">2015-05-26T11:04:15Z</DateUtc></StartTime><FrequencyChanges><FrequencyChange><Frequency dt:dt=""r8"">3312890</Frequency><Timestamp dt:dt=""r8"">38967280877</Timestamp><Current dt:dt=""r8"">0</Current><DateUtc dt:dt=""string"">2015-05-26T11:04:15Z</DateUtc></FrequencyChange></FrequencyChanges></Clock>\n",Tweet_Rating_Chinese_Right-43-1,59.822,1.0.0.374,中文,1,研究生,313235464,Professional,2.0.10.353,2.0.10.353,05-26-2015,2015-05-26T11:04:00Z,12:04:15.000000,女,2.0.10.248,4,4,1,4,BlockProc,BlockList,41,1,2,3,2,0,2,3,2,NA,NA,NA,TrialProc,806985,No,6712,813697,NA,0,0,2,1767,815489,0,691,816201,TrialList,宗教是一首轻松的音乐。,2,1,41
Tweet_Rating_Chinese_Right,43,1,18-30,"<?xml version=""1.0""?>\n<Clock xmlns:dt=""urn:schemas-microsoft-com:datatypes""><Description dt:dt=""string"">E-Prime Primary Realtime Clock</Description><StartTime><Timestamp dt:dt=""int"">0</Timestamp><DateUtc dt:dt=""string"">2015-05-26T11:04:15Z</DateUtc></StartTime><FrequencyChanges><FrequencyChange><Frequency dt:dt=""r8"">3312890</Frequency><Timestamp dt:dt=""r8"">38967280877</Timestamp><Current dt:dt=""r8"">0</Current><DateUtc dt:dt=""string"">2015-05-26T11:04:15Z</DateUtc></FrequencyChange></FrequencyChanges></Clock>\n",Tweet_Rating_Chinese_Right-43-1,59.822,1.0.0.374,中文,1,研究生,313235464,Professional,2.0.10.353,2.0.10.353,05-26-2015,2015-05-26T11:04:00Z,12:04:15.000000,女,2.0.10.248,4,4,1,4,BlockProc,BlockList,42,0,2,2,1,0,41,1,1,NA,NA,NA,TrialProc,820425,Yes,4328,824753,3,1230,826001,4,1176,827201,1,1772,829001,TrialList,死亡是轻松的睡眠。,41,1,42
Tweet_Rating_Chinese_Right,43,1,18-30,"<?xml version=""1.0""?>\n<Clock xmlns:dt=""urn:schemas-microsoft-com:datatypes""><Description dt:dt=""string"">E-Prime Primary Realtime Clock</Description><StartTime><Timestamp dt:dt=""int"">0</Timestamp><DateUtc dt:dt=""string"">2015-05-26T11:04:15Z</DateUtc></StartTime><FrequencyChanges><FrequencyChange><Frequency dt:dt=""r8"">3312890</Frequency><Timestamp dt:dt=""r8"">38967280877</Timestamp><Current dt:dt=""r8"">0</Current><DateUtc dt:dt=""string"">2015-05-26T11:04:15Z</DateUtc></FrequencyChange></FrequencyChanges></Clock>\n",Tweet_Rating_Chinese_Right-43-1,59.822,1.0.0.374,中文,1,研究生,313235464,Professional,2.0.10.353,2.0.10.353,05-26-2015,2015-05-26T11:04:00Z,12:04:15.000000,女,2.0.10.248,4,4,1,4,BlockProc,BlockList,43,0,1,3,2,1,57,2,2,NA,NA,NA,TrialProc,833297,Yes,9863,843160,3,1848,845024,4,1448,846496,1,4865,851384,TrialList,优柔寡断是一个平静的旋窝。,57,1,43
Tweet_Rating_Chinese_Right,43,1,18-30,"<?xml version=""1.0""?>\n<Clock xmlns:dt=""urn:schemas-microsoft-com:datatypes""><Description dt:dt=""string"">E-Prime Primary Realtime Clock</Description><StartTime><Timestamp dt:dt=""int"">0</Timestamp><DateUtc dt:dt=""string"">2015-05-26T11:04:15Z</DateUtc></StartTime><FrequencyChanges><FrequencyChange><Frequency dt:dt=""r8"">3312890</Frequency><Timestamp dt:dt=""r8"">38967280877</Timestamp><Current dt:dt=""r8"">0</Current><DateUtc dt:dt=""string"">2015-05-26T11:04:15Z</DateUtc></FrequencyChange></FrequencyChanges></Clock>\n",Tweet_Rating_Chinese_Right-43-1,59.822,1.0.0.374,中文,1,研究生,313235464,Professional,2.0.10.353,2.0.10.353,05-26-2015,2015-05-26T11:04:00Z,12:04:15.000000,女,2.0.10.248,4,4,1,4,BlockProc,BlockList,44,0,2,3,3,0,24,1,1,NA,NA,NA,TrialProc,855663,Yes,3704,859367,2,808,860199,3,1228,861455,0,175,861655,TrialList,婚姻是炙热的地狱。,24,1,44
Tweet_Rating_Chinese_Right,43,1,18-30,"<?xml version=""1.0""?>\n<Clock xmlns:dt=""urn:schemas-microsoft-com:datatypes""><Description dt:dt=""string"">E-Prime Primary Realtime Clock</Description><StartTime><Timestamp dt:dt=""int"">0</Timestamp><DateUtc dt:dt=""string"">2015-05-26T11:04:15Z</DateUtc></StartTime><FrequencyChanges><FrequencyChange><Frequency dt:dt=""r8"">3312890</Frequency><Timestamp dt:dt=""r8"">38967280877</Timestamp><Current dt:dt=""r8"">0</Current><DateUtc dt:dt=""string"">2015-05-26T11:04:15Z</DateUtc></FrequencyChange></FrequencyChanges></Clock>\n",Tweet_Rating_Chinese_Right-43-1,59.822,1.0.0.374,中文,1,研究生,313235464,Professional,2.0.10.353,2.0.10.353,05-26-2015,2015-05-26T11:04:00Z,12:04:15.000000,女,2.0.10.248,4,4,1,4,BlockProc,BlockList,45,1,2,2,2,1,55,3,2,NA,NA,NA,TrialProc,866211,Yes,3124,869335,2,829,870183,3,961,871167,0,270,871463,TrialList,睡眠是一片汪洋大海。,55,1,45
Tweet_Rating_Chinese_Right,43,1,18-30,"<?xml version=""1.0""?>\n<Clock xmlns:dt=""urn:schemas-microsoft-com:datatypes""><Description dt:dt=""string"">E-Prime Primary Realtime Clock</Description><StartTime><Timestamp dt:dt=""int"">0</Timestamp><DateUtc dt:dt=""string"">2015-05-26T11:04:15Z</DateUtc></StartTime><FrequencyChanges><FrequencyChange><Frequency dt:dt=""r8"">3312890</Frequency><Timestamp dt:dt=""r8"">38967280877</Timestamp><Current dt:dt=""r8"">0</Current><DateUtc dt:dt=""string"">2015-05-26T11:04:15Z</DateUtc></FrequencyChange></FrequencyChanges></Clock>\n",Tweet_Rating_Chinese_Right-43-1,59.822,1.0.0.374,中文,1,研究生,313235464,Professional,2.0.10.353,2.0.10.353,05-26-2015,2015-05-26T11:04:00Z,12:04:15.000000,女,2.0.10.248,4,4,1,4,BlockProc,BlockList,46,0,2,2,2,0,38,2,2,NA,NA,NA,TrialProc,876057,Yes,1582,877639,2,1761,879423,4,3451,882902,0,622,883550,TrialList,爱是一种有益的药。,38,1,46
Tweet_Rating_Chinese_Right,43,1,18-30,"<?xml version=""1.0""?>\n<Clock xmlns:dt=""urn:schemas-microsoft-com:datatypes""><Description dt:dt=""string"">E-Prime Primary Realtime Clock</Description><StartTime><Timestamp dt:dt=""int"">0</Timestamp><DateUtc dt:dt=""string"">2015-05-26T11:04:15Z</DateUtc></StartTime><FrequencyChanges><FrequencyChange><Frequency dt:dt=""r8"">3312890</Frequency><Timestamp dt:dt=""r8"">38967280877</Timestamp><Current dt:dt=""r8"">0</Current><DateUtc dt:dt=""string"">2015-05-26T11:04:15Z</DateUtc></FrequencyChange></FrequencyChanges></Clock>\n",Tweet_Rating_Chinese_Right-43-1,59.822,1.0.0.374,中文,1,研究生,313235464,Professional,2.0.10.353,2.0.10.353,05-26-2015,2015-05-26T11:04:00Z,12:04:15.000000,女,2.0.10.248,4,4,1,4,BlockProc,BlockList,47,0,1,2,3,1,56,2,2,NA,NA,NA,TrialProc,887909,Yes,3865,891774,2,995,892782,3,839,893646,1,475,894134,TrialList,纪律是一种强化肥。,56,1,47
Tweet_Rating_Chinese_Right,43,1,18-30,"<?xml version=""1.0""?>\n<Clock xmlns:dt=""urn:schemas-microsoft-com:datatypes""><Description dt:dt=""string"">E-Prime Primary Realtime Clock</Description><StartTime><Timestamp dt:dt=""int"">0</Timestamp><DateUtc dt:dt=""string"">2015-05-26T11:04:15Z</DateUtc></StartTime><FrequencyChanges><FrequencyChange><Frequency dt:dt=""r8"">3312890</Frequency><Timestamp dt:dt=""r8"">38967280877</Timestamp><Current dt:dt=""r8"">0</Current><DateUtc dt:dt=""string"">2015-05-26T11:04:15Z</DateUtc></FrequencyChange></FrequencyChanges></Clock>\n",Tweet_Rating_Chinese_Right-43-1,59.822,1.0.0.374,中文,1,研究生,313235464,Professional,2.0.10.353,2.0.10.353,05-26-2015,2015-05-26T11:04:00Z,12:04:15.000000,女,2.0.10.248,4,4,1,4,BlockProc,BlockList,48,0,2,2,2,0,15,1,1,NA,NA,NA,TrialProc,898323,No,6243,904566,NA,0,0,2,5709,910301,1,2815,913141,TrialList,历史是一门现代科学。,15,1,48
Tweet_Rating_Chinese_Right,43,1,18-30,"<?xml version=""1.0""?>\n<Clock xmlns:dt=""urn:schemas-microsoft-com:datatypes""><Description dt:dt=""string"">E-Prime Primary Realtime Clock</Description><StartTime><Timestamp dt:dt=""int"">0</Timestamp><DateUtc dt:dt=""string"">2015-05-26T11:04:15Z</DateUtc></StartTime><FrequencyChanges><FrequencyChange><Frequency dt:dt=""r8"">3312890</Frequency><Timestamp dt:dt=""r8"">38967280877</Timestamp><Current dt:dt=""r8"">0</Current><DateUtc dt:dt=""string"">2015-05-26T11:04:15Z</DateUtc></FrequencyChange></FrequencyChanges></Clock>\n",Tweet_Rating_Chinese_Right-43-1,59.822,1.0.0.374,中文,1,研究生,313235464,Professional,2.0.10.353,2.0.10.353,05-26-2015,2015-05-26T11:04:00Z,12:04:15.000000,女,2.0.10.248,4,4,1,4,BlockProc,BlockList,49,0,1,2,3,0,31,2,2,NA,NA,NA,TrialProc,917347,Yes,1914,919261,2,1135,920421,4,2222,922661,0,542,923221,TrialList,歌声是一团安慰的火。,31,1,49
Tweet_Rating_Chinese_Right,43,1,18-30,"<?xml version=""1.0""?>\n<Clock xmlns:dt=""urn:schemas-microsoft-com:datatypes""><Description dt:dt=""string"">E-Prime Primary Realtime Clock</Description><StartTime><Timestamp dt:dt=""int"">0</Timestamp><DateUtc dt:dt=""string"">2015-05-26T11:04:15Z</DateUtc></StartTime><FrequencyChanges><FrequencyChange><Frequency dt:dt=""r8"">3312890</Frequency><Timestamp dt:dt=""r8"">38967280877</Timestamp><Current dt:dt=""r8"">0</Current><DateUtc dt:dt=""string"">2015-05-26T11:04:15Z</DateUtc></FrequencyChange></FrequencyChanges></Clock>\n",Tweet_Rating_Chinese_Right-43-1,59.822,1.0.0.374,中文,1,研究生,313235464,Professional,2.0.10.353,2.0.10.353,05-26-2015,2015-05-26T11:04:00Z,12:04:15.000000,女,2.0.10.248,4,4,1,4,BlockProc,BlockList,50,0,1,2,2,1,51,1,1,NA,NA,NA,TrialProc,927443,Yes,8857,936300,2,940,937260,3,2339,939612,0,9814,949444,TrialList,智慧是一个遥远的外国人。,51,1,50
Tweet_Rating_Chinese_Right,43,1,18-30,"<?xml version=""1.0""?>\n<Clock xmlns:dt=""urn:schemas-microsoft-com:datatypes""><Description dt:dt=""string"">E-Prime Primary Realtime Clock</Description><StartTime><Timestamp dt:dt=""int"">0</Timestamp><DateUtc dt:dt=""string"">2015-05-26T11:04:15Z</DateUtc></StartTime><FrequencyChanges><FrequencyChange><Frequency dt:dt=""r8"">3312890</Frequency><Timestamp dt:dt=""r8"">38967280877</Timestamp><Current dt:dt=""r8"">0</Current><DateUtc dt:dt=""string"">2015-05-26T11:04:15Z</DateUtc></FrequencyChange></FrequencyChanges></Clock>\n",Tweet_Rating_Chinese_Right-43-1,59.822,1.0.0.374,中文,1,研究生,313235464,Professional,2.0.10.353,2.0.10.353,05-26-2015,2015-05-26T11:04:00Z,12:04:15.000000,女,2.0.10.248,4,4,1,4,BlockProc,BlockList,51,1,2,3,2,0,50,3,1,NA,NA,NA,TrialProc,953738,Yes,9265,963003,1,2610,965643,3,1962,967619,0,3229,970875,TrialList,真理是一个绝色美女。,50,1,51
Tweet_Rating_Chinese_Right,43,1,18-30,"<?xml version=""1.0""?>\n<Clock xmlns:dt=""urn:schemas-microsoft-com:datatypes""><Description dt:dt=""string"">E-Prime Primary Realtime Clock</Description><StartTime><Timestamp dt:dt=""int"">0</Timestamp><DateUtc dt:dt=""string"">2015-05-26T11:04:15Z</DateUtc></StartTime><FrequencyChanges><FrequencyChange><Frequency dt:dt=""r8"">3312890</Frequency><Timestamp dt:dt=""r8"">38967280877</Timestamp><Current dt:dt=""r8"">0</Current><DateUtc dt:dt=""string"">2015-05-26T11:04:15Z</DateUtc></FrequencyChange></FrequencyChanges></Clock>\n",Tweet_Rating_Chinese_Right-43-1,59.822,1.0.0.374,中文,1,研究生,313235464,Professional,2.0.10.353,2.0.10.353,05-26-2015,2015-05-26T11:04:00Z,12:04:15.000000,女,2.0.10.248,4,4,1,4,BlockProc,BlockList,52,0,2,2,1,0,4,3,3,NA,NA,NA,TrialProc,975085,No,7142,982227,NA,0,0,3,1515,983755,0,825,984603,TrialList,恐惧是一种甜蜜的爱情。,4,1,52
Tweet_Rating_Chinese_Right,43,1,18-30,"<?xml version=""1.0""?>\n<Clock xmlns:dt=""urn:schemas-microsoft-com:datatypes""><Description dt:dt=""string"">E-Prime Primary Realtime Clock</Description><StartTime><Timestamp dt:dt=""int"">0</Timestamp><DateUtc dt:dt=""string"">2015-05-26T11:04:15Z</DateUtc></StartTime><FrequencyChanges><FrequencyChange><Frequency dt:dt=""r8"">3312890</Frequency><Timestamp dt:dt=""r8"">38967280877</Timestamp><Current dt:dt=""r8"">0</Current><DateUtc dt:dt=""string"">2015-05-26T11:04:15Z</DateUtc></FrequencyChange></FrequencyChanges></Clock>\n",Tweet_Rating_Chinese_Right-43-1,59.822,1.0.0.374,中文,1,研究生,313235464,Professional,2.0.10.353,2.0.10.353,05-26-2015,2015-05-26T11:04:00Z,12:04:15.000000,女,2.0.10.248,4,4,1,4,BlockProc,BlockList,53,0,2,3,1,0,39,3,3,NA,NA,NA,TrialProc,988910,Yes,1972,990882,1,847,991746,3,2642,994410,1,1824,996250,TrialList,政府是一副迷人的画卷。,39,1,53
Tweet_Rating_Chinese_Right,43,1,18-30,"<?xml version=""1.0""?>\n<Clock xmlns:dt=""urn:schemas-microsoft-com:datatypes""><Description dt:dt=""string"">E-Prime Primary Realtime Clock</Description><StartTime><Timestamp dt:dt=""int"">0</Timestamp><DateUtc dt:dt=""string"">2015-05-26T11:04:15Z</DateUtc></StartTime><FrequencyChanges><FrequencyChange><Frequency dt:dt=""r8"">3312890</Frequency><Timestamp dt:dt=""r8"">38967280877</Timestamp><Current dt:dt=""r8"">0</Current><DateUtc dt:dt=""string"">2015-05-26T11:04:15Z</DateUtc></FrequencyChange></FrequencyChanges></Clock>\n",Tweet_Rating_Chinese_Right-43-1,59.822,1.0.0.374,中文,1,研究生,313235464,Professional,2.0.10.353,2.0.10.353,05-26-2015,2015-05-26T11:04:00Z,12:04:15.000000,女,2.0.10.248,4,4,1,4,BlockProc,BlockList,54,0,1,2,2,0,1,2,2,NA,NA,NA,TrialProc,1002801,Yes,2849,1005650,2,1302,1006978,4,1301,1008298,0,613,1008930,TrialList,话语是一首安慰的歌。,1,1,54
Tweet_Rating_Chinese_Right,43,1,18-30,"<?xml version=""1.0""?>\n<Clock xmlns:dt=""urn:schemas-microsoft-com:datatypes""><Description dt:dt=""string"">E-Prime Primary Realtime Clock</Description><StartTime><Timestamp dt:dt=""int"">0</Timestamp><DateUtc dt:dt=""string"">2015-05-26T11:04:15Z</DateUtc></StartTime><FrequencyChanges><FrequencyChange><Frequency dt:dt=""r8"">3312890</Frequency><Timestamp dt:dt=""r8"">38967280877</Timestamp><Current dt:dt=""r8"">0</Current><DateUtc dt:dt=""string"">2015-05-26T11:04:15Z</DateUtc></FrequencyChange></FrequencyChanges></Clock>\n",Tweet_Rating_Chinese_Right-43-1,59.822,1.0.0.374,中文,1,研究生,313235464,Professional,2.0.10.353,2.0.10.353,05-26-2015,2015-05-26T11:04:00Z,12:04:15.000000,女,2.0.10.248,4,4,1,4,BlockProc,BlockList,55,0,1,1,2,0,10,2,2,NA,NA,NA,TrialProc,1013132,Yes,2333,1015465,2,960,1016449,4,2182,1018657,0,848,1019529,TrialList,安全是温暖的光。,10,1,55
Tweet_Rating_Chinese_Right,43,1,18-30,"<?xml version=""1.0""?>\n<Clock xmlns:dt=""urn:schemas-microsoft-com:datatypes""><Description dt:dt=""string"">E-Prime Primary Realtime Clock</Description><StartTime><Timestamp dt:dt=""int"">0</Timestamp><DateUtc dt:dt=""string"">2015-05-26T11:04:15Z</DateUtc></StartTime><FrequencyChanges><FrequencyChange><Frequency dt:dt=""r8"">3312890</Frequency><Timestamp dt:dt=""r8"">38967280877</Timestamp><Current dt:dt=""r8"">0</Current><DateUtc dt:dt=""string"">2015-05-26T11:04:15Z</DateUtc></FrequencyChange></FrequencyChanges></Clock>\n",Tweet_Rating_Chinese_Right-43-1,59.822,1.0.0.374,中文,1,研究生,313235464,Professional,2.0.10.353,2.0.10.353,05-26-2015,2015-05-26T11:04:00Z,12:04:15.000000,女,2.0.10.248,4,4,1,4,BlockProc,BlockList,56,1,1,1,2,0,48,1,3,NA,NA,NA,TrialProc,1023964,No,3781,1027745,NA,0,0,2,1547,1029305,0,567,1029897,TrialList,政府是一束温暖的光。,48,1,56
Tweet_Rating_Chinese_Right,43,1,18-30,"<?xml version=""1.0""?>\n<Clock xmlns:dt=""urn:schemas-microsoft-com:datatypes""><Description dt:dt=""string"">E-Prime Primary Realtime Clock</Description><StartTime><Timestamp dt:dt=""int"">0</Timestamp><DateUtc dt:dt=""string"">2015-05-26T11:04:15Z</DateUtc></StartTime><FrequencyChanges><FrequencyChange><Frequency dt:dt=""r8"">3312890</Frequency><Timestamp dt:dt=""r8"">38967280877</Timestamp><Current dt:dt=""r8"">0</Current><DateUtc dt:dt=""string"">2015-05-26T11:04:15Z</DateUtc></FrequencyChange></FrequencyChanges></Clock>\n",Tweet_Rating_Chinese_Right-43-1,59.822,1.0.0.374,中文,1,研究生,313235464,Professional,2.0.10.353,2.0.10.353,05-26-2015,2015-05-26T11:04:00Z,12:04:15.000000,女,2.0.10.248,4,4,1,4,BlockProc,BlockList,57,0,2,1,2,1,52,1,1,NA,NA,NA,TrialProc,1033977,Yes,4728,1038705,2,1460,1040184,4,1140,1041352,1,882,1042248,TrialList,危险是一种辣味调料。,52,1,57
Tweet_Rating_Chinese_Right,43,1,18-30,"<?xml version=""1.0""?>\n<Clock xmlns:dt=""urn:schemas-microsoft-com:datatypes""><Description dt:dt=""string"">E-Prime Primary Realtime Clock</Description><StartTime><Timestamp dt:dt=""int"">0</Timestamp><DateUtc dt:dt=""string"">2015-05-26T11:04:15Z</DateUtc></StartTime><FrequencyChanges><FrequencyChange><Frequency dt:dt=""r8"">3312890</Frequency><Timestamp dt:dt=""r8"">38967280877</Timestamp><Current dt:dt=""r8"">0</Current><DateUtc dt:dt=""string"">2015-05-26T11:04:15Z</DateUtc></FrequencyChange></FrequencyChanges></Clock>\n",Tweet_Rating_Chinese_Right-43-1,59.822,1.0.0.374,中文,1,研究生,313235464,Professional,2.0.10.353,2.0.10.353,05-26-2015,2015-05-26T11:04:00Z,12:04:15.000000,女,2.0.10.248,4,4,1,4,BlockProc,BlockList,58,0,1,1,2,0,47,1,1,NA,NA,NA,TrialProc,1046297,Yes,2375,1048672,3,1033,1049720,4,4067,1053808,1,1164,1055e3,TrialList,学习是一项有价值的投资。,47,1,58
Tweet_Rating_Chinese_Right,43,1,18-30,"<?xml version=""1.0""?>\n<Clock xmlns:dt=""urn:schemas-microsoft-com:datatypes""><Description dt:dt=""string"">E-Prime Primary Realtime Clock</Description><StartTime><Timestamp dt:dt=""int"">0</Timestamp><DateUtc dt:dt=""string"">2015-05-26T11:04:15Z</DateUtc></StartTime><FrequencyChanges><FrequencyChange><Frequency dt:dt=""r8"">3312890</Frequency><Timestamp dt:dt=""r8"">38967280877</Timestamp><Current dt:dt=""r8"">0</Current><DateUtc dt:dt=""string"">2015-05-26T11:04:15Z</DateUtc></FrequencyChange></FrequencyChanges></Clock>\n",Tweet_Rating_Chinese_Right-43-1,59.822,1.0.0.374,中文,1,研究生,313235464,Professional,2.0.10.353,2.0.10.353,05-26-2015,2015-05-26T11:04:00Z,12:04:15.000000,女,2.0.10.248,4,4,1,4,BlockProc,BlockList,59,0,2,2,2,0,22,2,2,NA,NA,NA,TrialProc,1059386,No,1734,1061120,NA,0,0,2,835,1061976,0,654,1062648,TrialList,药是一种温柔的爱。,22,1,59
Tweet_Rating_Chinese_Right,43,1,18-30,"<?xml version=""1.0""?>\n<Clock xmlns:dt=""urn:schemas-microsoft-com:datatypes""><Description dt:dt=""string"">E-Prime Primary Realtime Clock</Description><StartTime><Timestamp dt:dt=""int"">0</Timestamp><DateUtc dt:dt=""string"">2015-05-26T11:04:15Z</DateUtc></StartTime><FrequencyChanges><FrequencyChange><Frequency dt:dt=""r8"">3312890</Frequency><Timestamp dt:dt=""r8"">38967280877</Timestamp><Current dt:dt=""r8"">0</Current><DateUtc dt:dt=""string"">2015-05-26T11:04:15Z</DateUtc></FrequencyChange></FrequencyChanges></Clock>\n",Tweet_Rating_Chinese_Right-43-1,59.822,1.0.0.374,中文,1,研究生,313235464,Professional,2.0.10.353,2.0.10.353,05-26-2015,2015-05-26T11:04:00Z,12:04:15.000000,女,2.0.10.248,4,4,1,4,BlockProc,BlockList,60,0,2,1,2,0,26,3,3,NA,NA,NA,TrialProc,1066691,No,4084,1070775,NA,0,0,3,2060,1072863,0,674,1073567,TrialList,财务是一杯美味的葡萄酒。,26,1,60
Tweet_Rating_Chinese_Right,45,1,18-30,"<?xml version=""1.0""?>\n<Clock xmlns:dt=""urn:schemas-microsoft-com:datatypes""><Description dt:dt=""string"">E-Prime Primary Realtime Clock</Description><StartTime><Timestamp dt:dt=""int"">0</Timestamp><DateUtc dt:dt=""string"">2015-05-26T12:02:18Z</DateUtc></StartTime><FrequencyChanges><FrequencyChange><Frequency dt:dt=""r8"">3312890</Frequency><Timestamp dt:dt=""r8"">50507030306</Timestamp><Current dt:dt=""r8"">0</Current><DateUtc dt:dt=""string"">2015-05-26T12:02:18Z</DateUtc></FrequencyChange></FrequencyChanges></Clock>\n",Tweet_Rating_Chinese_Right-45-1,59.822,1.0.0.376,中文,1,研究生,-1031928969,Professional,2.0.10.353,2.0.10.353,05-26-2015,2015-05-26T12:02:00Z,13:02:19.000000,女,2.0.10.248,4,4,1,4,BlockProc,BlockList,1,0,1,1,2,0,32,2,2,NA,NA,NA,TrialProc,337083,Yes,6764,343847,2,2336,346206,3,4683,350910,0,1202,352126,TrialList,技术是温暖的光。,32,1,1
Tweet_Rating_Chinese_Right,45,1,18-30,"<?xml version=""1.0""?>\n<Clock xmlns:dt=""urn:schemas-microsoft-com:datatypes""><Description dt:dt=""string"">E-Prime Primary Realtime Clock</Description><StartTime><Timestamp dt:dt=""int"">0</Timestamp><DateUtc dt:dt=""string"">2015-05-26T12:02:18Z</DateUtc></StartTime><FrequencyChanges><FrequencyChange><Frequency dt:dt=""r8"">3312890</Frequency><Timestamp dt:dt=""r8"">50507030306</Timestamp><Current dt:dt=""r8"">0</Current><DateUtc dt:dt=""string"">2015-05-26T12:02:18Z</DateUtc></FrequencyChange></FrequencyChanges></Clock>\n",Tweet_Rating_Chinese_Right-45-1,59.822,1.0.0.376,中文,1,研究生,-1031928969,Professional,2.0.10.353,2.0.10.353,05-26-2015,2015-05-26T12:02:00Z,13:02:19.000000,女,2.0.10.248,4,4,1,4,BlockProc,BlockList,2,0,1,3,2,1,57,2,2,NA,NA,NA,TrialProc,358363,Yes,14570,372933,1,3761,376717,2,1495,378229,0,1542,379797,TrialList,优柔寡断是一个平静的旋窝。,57,1,2
Tweet_Rating_Chinese_Right,45,1,18-30,"<?xml version=""1.0""?>\n<Clock xmlns:dt=""urn:schemas-microsoft-com:datatypes""><Description dt:dt=""string"">E-Prime Primary Realtime Clock</Description><StartTime><Timestamp dt:dt=""int"">0</Timestamp><DateUtc dt:dt=""string"">2015-05-26T12:02:18Z</DateUtc></StartTime><FrequencyChanges><FrequencyChange><Frequency dt:dt=""r8"">3312890</Frequency><Timestamp dt:dt=""r8"">50507030306</Timestamp><Current dt:dt=""r8"">0</Current><DateUtc dt:dt=""string"">2015-05-26T12:02:18Z</DateUtc></FrequencyChange></FrequencyChanges></Clock>\n",Tweet_Rating_Chinese_Right-45-1,59.822,1.0.0.376,中文,1,研究生,-1031928969,Professional,2.0.10.353,2.0.10.353,05-26-2015,2015-05-26T12:02:00Z,13:02:19.000000,女,2.0.10.248,4,4,1,4,BlockProc,BlockList,3,0,1,2,2,0,16,2,2,NA,NA,NA,TrialProc,384173,Yes,4176,388349,1,2140,390509,3,2080,392605,0,1070,393701,TrialList,权力是一种温暖的光。,16,1,3
Tweet_Rating_Chinese_Right,45,1,18-30,"<?xml version=""1.0""?>\n<Clock xmlns:dt=""urn:schemas-microsoft-com:datatypes""><Description dt:dt=""string"">E-Prime Primary Realtime Clock</Description><StartTime><Timestamp dt:dt=""int"">0</Timestamp><DateUtc dt:dt=""string"">2015-05-26T12:02:18Z</DateUtc></StartTime><FrequencyChanges><FrequencyChange><Frequency dt:dt=""r8"">3312890</Frequency><Timestamp dt:dt=""r8"">50507030306</Timestamp><Current dt:dt=""r8"">0</Current><DateUtc dt:dt=""string"">2015-05-26T12:02:18Z</DateUtc></FrequencyChange></FrequencyChanges></Clock>\n",Tweet_Rating_Chinese_Right-45-1,59.822,1.0.0.376,中文,1,研究生,-1031928969,Professional,2.0.10.353,2.0.10.353,05-26-2015,2015-05-26T12:02:00Z,13:02:19.000000,女,2.0.10.248,4,4,1,4,BlockProc,BlockList,4,0,2,3,1,0,29,3,3,NA,NA,NA,TrialProc,399084,No,6528,405612,NA,0,0,2,2375,408012,0,1313,409340,TrialList,交易是一首轻松的音乐。,29,1,4
Tweet_Rating_Chinese_Right,45,1,18-30,"<?xml version=""1.0""?>\n<Clock xmlns:dt=""urn:schemas-microsoft-com:datatypes""><Description dt:dt=""string"">E-Prime Primary Realtime Clock</Description><StartTime><Timestamp dt:dt=""int"">0</Timestamp><DateUtc dt:dt=""string"">2015-05-26T12:02:18Z</DateUtc></StartTime><FrequencyChanges><FrequencyChange><Frequency dt:dt=""r8"">3312890</Frequency><Timestamp dt:dt=""r8"">50507030306</Timestamp><Current dt:dt=""r8"">0</Current><DateUtc dt:dt=""string"">2015-05-26T12:02:18Z</DateUtc></FrequencyChange></FrequencyChanges></Clock>\n",Tweet_Rating_Chinese_Right-45-1,59.822,1.0.0.376,中文,1,研究生,-1031928969,Professional,2.0.10.353,2.0.10.353,05-26-2015,2015-05-26T12:02:00Z,13:02:19.000000,女,2.0.10.248,4,4,1,4,BlockProc,BlockList,5,0,1,2,3,0,31,2,2,NA,NA,NA,TrialProc,413677,Yes,12278,425955,2,1527,427507,4,2276,429811,1,4177,434019,TrialList,歌声是一团安慰的火。,31,1,5
Tweet_Rating_Chinese_Right,45,1,18-30,"<?xml version=""1.0""?>\n<Clock xmlns:dt=""urn:schemas-microsoft-com:datatypes""><Description dt:dt=""string"">E-Prime Primary Realtime Clock</Description><StartTime><Timestamp dt:dt=""int"">0</Timestamp><DateUtc dt:dt=""string"">2015-05-26T12:02:18Z</DateUtc></StartTime><FrequencyChanges><FrequencyChange><Frequency dt:dt=""r8"">3312890</Frequency><Timestamp dt:dt=""r8"">50507030306</Timestamp><Current dt:dt=""r8"">0</Current><DateUtc dt:dt=""string"">2015-05-26T12:02:18Z</DateUtc></FrequencyChange></FrequencyChanges></Clock>\n",Tweet_Rating_Chinese_Right-45-1,59.822,1.0.0.376,中文,1,研究生,-1031928969,Professional,2.0.10.353,2.0.10.353,05-26-2015,2015-05-26T12:02:00Z,13:02:19.000000,女,2.0.10.248,4,4,1,4,BlockProc,BlockList,6,0,1,2,2,0,11,1,1,NA,NA,NA,TrialProc,438250,Yes,7073,445323,2,2249,447587,4,1440,449051,1,4008,453074,TrialList,爱情是一把安慰的火。,11,1,6
Tweet_Rating_Chinese_Right,45,1,18-30,"<?xml version=""1.0""?>\n<Clock xmlns:dt=""urn:schemas-microsoft-com:datatypes""><Description dt:dt=""string"">E-Prime Primary Realtime Clock</Description><StartTime><Timestamp dt:dt=""int"">0</Timestamp><DateUtc dt:dt=""string"">2015-05-26T12:02:18Z</DateUtc></StartTime><FrequencyChanges><FrequencyChange><Frequency dt:dt=""r8"">3312890</Frequency><Timestamp dt:dt=""r8"">50507030306</Timestamp><Current dt:dt=""r8"">0</Current><DateUtc dt:dt=""string"">2015-05-26T12:02:18Z</DateUtc></FrequencyChange></FrequencyChanges></Clock>\n",Tweet_Rating_Chinese_Right-45-1,59.822,1.0.0.376,中文,1,研究生,-1031928969,Professional,2.0.10.353,2.0.10.353,05-26-2015,2015-05-26T12:02:00Z,13:02:19.000000,女,2.0.10.248,4,4,1,4,BlockProc,BlockList,7,1,2,1,2,0,49,3,1,NA,NA,NA,TrialProc,457725,Yes,6845,464570,2,2223,466818,4,1399,468234,1,2410,470666,TrialList,血液是一杯诱人的葡萄酒。,49,1,7
Tweet_Rating_Chinese_Right,45,1,18-30,"<?xml version=""1.0""?>\n<Clock xmlns:dt=""urn:schemas-microsoft-com:datatypes""><Description dt:dt=""string"">E-Prime Primary Realtime Clock</Description><StartTime><Timestamp dt:dt=""int"">0</Timestamp><DateUtc dt:dt=""string"">2015-05-26T12:02:18Z</DateUtc></StartTime><FrequencyChanges><FrequencyChange><Frequency dt:dt=""r8"">3312890</Frequency><Timestamp dt:dt=""r8"">50507030306</Timestamp><Current dt:dt=""r8"">0</Current><DateUtc dt:dt=""string"">2015-05-26T12:02:18Z</DateUtc></FrequencyChange></FrequencyChanges></Clock>\n",Tweet_Rating_Chinese_Right-45-1,59.822,1.0.0.376,中文,1,研究生,-1031928969,Professional,2.0.10.353,2.0.10.353,05-26-2015,2015-05-26T12:02:00Z,13:02:19.000000,女,2.0.10.248,4,4,1,4,BlockProc,BlockList,8,0,2,1,2,0,27,1,1,NA,NA,NA,TrialProc,475244,Yes,7589,482833,2,2135,484985,4,1659,486665,0,1011,487705,TrialList,艺术是一种美丽的爱。,27,1,8
Tweet_Rating_Chinese_Right,45,1,18-30,"<?xml version=""1.0""?>\n<Clock xmlns:dt=""urn:schemas-microsoft-com:datatypes""><Description dt:dt=""string"">E-Prime Primary Realtime Clock</Description><StartTime><Timestamp dt:dt=""int"">0</Timestamp><DateUtc dt:dt=""string"">2015-05-26T12:02:18Z</DateUtc></StartTime><FrequencyChanges><FrequencyChange><Frequency dt:dt=""r8"">3312890</Frequency><Timestamp dt:dt=""r8"">50507030306</Timestamp><Current dt:dt=""r8"">0</Current><DateUtc dt:dt=""string"">2015-05-26T12:02:18Z</DateUtc></FrequencyChange></FrequencyChanges></Clock>\n",Tweet_Rating_Chinese_Right-45-1,59.822,1.0.0.376,中文,1,研究生,-1031928969,Professional,2.0.10.353,2.0.10.353,05-26-2015,2015-05-26T12:02:00Z,13:02:19.000000,女,2.0.10.248,4,4,1,4,BlockProc,BlockList,9,1,1,3,2,0,40,3,2,NA,NA,NA,TrialProc,492545,No,9032,501577,NA,0,0,3,2499,504104,0,1150,505280,TrialList,疼痛是一种诱人的美。,40,1,9
Tweet_Rating_Chinese_Right,45,1,18-30,"<?xml version=""1.0""?>\n<Clock xmlns:dt=""urn:schemas-microsoft-com:datatypes""><Description dt:dt=""string"">E-Prime Primary Realtime Clock</Description><StartTime><Timestamp dt:dt=""int"">0</Timestamp><DateUtc dt:dt=""string"">2015-05-26T12:02:18Z</DateUtc></StartTime><FrequencyChanges><FrequencyChange><Frequency dt:dt=""r8"">3312890</Frequency><Timestamp dt:dt=""r8"">50507030306</Timestamp><Current dt:dt=""r8"">0</Current><DateUtc dt:dt=""string"">2015-05-26T12:02:18Z</DateUtc></FrequencyChange></FrequencyChanges></Clock>\n",Tweet_Rating_Chinese_Right-45-1,59.822,1.0.0.376,中文,1,研究生,-1031928969,Professional,2.0.10.353,2.0.10.353,05-26-2015,2015-05-26T12:02:00Z,13:02:19.000000,女,2.0.10.248,4,4,1,4,BlockProc,BlockList,10,0,2,2,2,0,15,1,1,NA,NA,NA,TrialProc,509429,No,6571,516e3,NA,0,0,2,1673,517688,0,2753,520456,TrialList,历史是一门现代科学。,15,1,10
Tweet_Rating_Chinese_Right,45,1,18-30,"<?xml version=""1.0""?>\n<Clock xmlns:dt=""urn:schemas-microsoft-com:datatypes""><Description dt:dt=""string"">E-Prime Primary Realtime Clock</Description><StartTime><Timestamp dt:dt=""int"">0</Timestamp><DateUtc dt:dt=""string"">2015-05-26T12:02:18Z</DateUtc></StartTime><FrequencyChanges><FrequencyChange><Frequency dt:dt=""r8"">3312890</Frequency><Timestamp dt:dt=""r8"">50507030306</Timestamp><Current dt:dt=""r8"">0</Current><DateUtc dt:dt=""string"">2015-05-26T12:02:18Z</DateUtc></FrequencyChange></FrequencyChanges></Clock>\n",Tweet_Rating_Chinese_Right-45-1,59.822,1.0.0.376,中文,1,研究生,-1031928969,Professional,2.0.10.353,2.0.10.353,05-26-2015,2015-05-26T12:02:00Z,13:02:19.000000,女,2.0.10.248,4,4,1,4,BlockProc,BlockList,11,0,2,1,2,1,52,1,1,NA,NA,NA,TrialProc,524925,Yes,6322,531247,3,2250,533527,4,1768,535319,1,1292,536631,TrialList,危险是一种辣味调料。,52,1,11
Tweet_Rating_Chinese_Right,45,1,18-30,"<?xml version=""1.0""?>\n<Clock xmlns:dt=""urn:schemas-microsoft-com:datatypes""><Description dt:dt=""string"">E-Prime Primary Realtime Clock</Description><StartTime><Timestamp dt:dt=""int"">0</Timestamp><DateUtc dt:dt=""string"">2015-05-26T12:02:18Z</DateUtc></StartTime><FrequencyChanges><FrequencyChange><Frequency dt:dt=""r8"">3312890</Frequency><Timestamp dt:dt=""r8"">50507030306</Timestamp><Current dt:dt=""r8"">0</Current><DateUtc dt:dt=""string"">2015-05-26T12:02:18Z</DateUtc></FrequencyChange></FrequencyChanges></Clock>\n",Tweet_Rating_Chinese_Right-45-1,59.822,1.0.0.376,中文,1,研究生,-1031928969,Professional,2.0.10.353,2.0.10.353,05-26-2015,2015-05-26T12:02:00Z,13:02:19.000000,女,2.0.10.248,4,4,1,4,BlockProc,BlockList,12,0,2,2,3,0,42,2,2,NA,NA,NA,TrialProc,541491,Yes,2932,544423,3,1773,546223,5,1681,547919,1,1568,549511,TrialList,写作是一种舒缓的愈合。,42,1,12
Tweet_Rating_Chinese_Right,45,1,18-30,"<?xml version=""1.0""?>\n<Clock xmlns:dt=""urn:schemas-microsoft-com:datatypes""><Description dt:dt=""string"">E-Prime Primary Realtime Clock</Description><StartTime><Timestamp dt:dt=""int"">0</Timestamp><DateUtc dt:dt=""string"">2015-05-26T12:02:18Z</DateUtc></StartTime><FrequencyChanges><FrequencyChange><Frequency dt:dt=""r8"">3312890</Frequency><Timestamp dt:dt=""r8"">50507030306</Timestamp><Current dt:dt=""r8"">0</Current><DateUtc dt:dt=""string"">2015-05-26T12:02:18Z</DateUtc></FrequencyChange></FrequencyChanges></Clock>\n",Tweet_Rating_Chinese_Right-45-1,59.822,1.0.0.376,中文,1,研究生,-1031928969,Professional,2.0.10.353,2.0.10.353,05-26-2015,2015-05-26T12:02:00Z,13:02:19.000000,女,2.0.10.248,4,4,1,4,BlockProc,BlockList,13,0,1,1,2,0,43,3,3,NA,NA,NA,TrialProc,553961,No,4325,558286,NA,0,0,1,1418,559726,0,1517,561262,TrialList,疾病是温暖的光。,43,1,13
Tweet_Rating_Chinese_Right,45,1,18-30,"<?xml version=""1.0""?>\n<Clock xmlns:dt=""urn:schemas-microsoft-com:datatypes""><Description dt:dt=""string"">E-Prime Primary Realtime Clock</Description><StartTime><Timestamp dt:dt=""int"">0</Timestamp><DateUtc dt:dt=""string"">2015-05-26T12:02:18Z</DateUtc></StartTime><FrequencyChanges><FrequencyChange><Frequency dt:dt=""r8"">3312890</Frequency><Timestamp dt:dt=""r8"">50507030306</Timestamp><Current dt:dt=""r8"">0</Current><DateUtc dt:dt=""string"">2015-05-26T12:02:18Z</DateUtc></FrequencyChange></FrequencyChanges></Clock>\n",Tweet_Rating_Chinese_Right-45-1,59.822,1.0.0.376,中文,1,研究生,-1031928969,Professional,2.0.10.353,2.0.10.353,05-26-2015,2015-05-26T12:02:00Z,13:02:19.000000,女,2.0.10.248,4,4,1,4,BlockProc,BlockList,14,1,2,2,1,0,18,2,1,NA,NA,NA,TrialProc,565713,No,5533,571246,NA,0,0,2,1471,572734,0,1784,574534,TrialList,宗教是一种著名的艺术。,18,1,14
Tweet_Rating_Chinese_Right,45,1,18-30,"<?xml version=""1.0""?>\n<Clock xmlns:dt=""urn:schemas-microsoft-com:datatypes""><Description dt:dt=""string"">E-Prime Primary Realtime Clock</Description><StartTime><Timestamp dt:dt=""int"">0</Timestamp><DateUtc dt:dt=""string"">2015-05-26T12:02:18Z</DateUtc></StartTime><FrequencyChanges><FrequencyChange><Frequency dt:dt=""r8"">3312890</Frequency><Timestamp dt:dt=""r8"">50507030306</Timestamp><Current dt:dt=""r8"">0</Current><DateUtc dt:dt=""string"">2015-05-26T12:02:18Z</DateUtc></FrequencyChange></FrequencyChanges></Clock>\n",Tweet_Rating_Chinese_Right-45-1,59.822,1.0.0.376,中文,1,研究生,-1031928969,Professional,2.0.10.353,2.0.10.353,05-26-2015,2015-05-26T12:02:00Z,13:02:19.000000,女,2.0.10.248,4,4,1,4,BlockProc,BlockList,15,0,2,2,2,0,25,2,2,NA,NA,NA,TrialProc,580122,No,2267,582389,NA,0,0,4,1784,584197,1,1555,585773,TrialList,食物是一首愉快的音乐。,25,1,15
Tweet_Rating_Chinese_Right,45,1,18-30,"<?xml version=""1.0""?>\n<Clock xmlns:dt=""urn:schemas-microsoft-com:datatypes""><Description dt:dt=""string"">E-Prime Primary Realtime Clock</Description><StartTime><Timestamp dt:dt=""int"">0</Timestamp><DateUtc dt:dt=""string"">2015-05-26T12:02:18Z</DateUtc></StartTime><FrequencyChanges><FrequencyChange><Frequency dt:dt=""r8"">3312890</Frequency><Timestamp dt:dt=""r8"">50507030306</Timestamp><Current dt:dt=""r8"">0</Current><DateUtc dt:dt=""string"">2015-05-26T12:02:18Z</DateUtc></FrequencyChange></FrequencyChanges></Clock>\n",Tweet_Rating_Chinese_Right-45-1,59.822,1.0.0.376,中文,1,研究生,-1031928969,Professional,2.0.10.353,2.0.10.353,05-26-2015,2015-05-26T12:02:00Z,13:02:19.000000,女,2.0.10.248,4,4,1,4,BlockProc,BlockList,16,0,1,3,3,1,59,2,2,NA,NA,NA,TrialProc,590520,Yes,4613,595133,3,1319,596469,4,1453,597941,1,1502,599461,TrialList,愤怒是一场寒冷的暴风雪。,59,1,16
Tweet_Rating_Chinese_Right,45,1,18-30,"<?xml version=""1.0""?>\n<Clock xmlns:dt=""urn:schemas-microsoft-com:datatypes""><Description dt:dt=""string"">E-Prime Primary Realtime Clock</Description><StartTime><Timestamp dt:dt=""int"">0</Timestamp><DateUtc dt:dt=""string"">2015-05-26T12:02:18Z</DateUtc></StartTime><FrequencyChanges><FrequencyChange><Frequency dt:dt=""r8"">3312890</Frequency><Timestamp dt:dt=""r8"">50507030306</Timestamp><Current dt:dt=""r8"">0</Current><DateUtc dt:dt=""string"">2015-05-26T12:02:18Z</DateUtc></FrequencyChange></FrequencyChanges></Clock>\n",Tweet_Rating_Chinese_Right-45-1,59.822,1.0.0.376,中文,1,研究生,-1031928969,Professional,2.0.10.353,2.0.10.353,05-26-2015,2015-05-26T12:02:00Z,13:02:19.000000,女,2.0.10.248,4,4,1,4,BlockProc,BlockList,17,0,1,2,1,0,45,3,3,NA,NA,NA,TrialProc,605464,No,7876,613340,NA,0,0,2,1473,614828,0,546,615388,TrialList,安全是令人振奋的能量。,45,1,17
Tweet_Rating_Chinese_Right,45,1,18-30,"<?xml version=""1.0""?>\n<Clock xmlns:dt=""urn:schemas-microsoft-com:datatypes""><Description dt:dt=""string"">E-Prime Primary Realtime Clock</Description><StartTime><Timestamp dt:dt=""int"">0</Timestamp><DateUtc dt:dt=""string"">2015-05-26T12:02:18Z</DateUtc></StartTime><FrequencyChanges><FrequencyChange><Frequency dt:dt=""r8"">3312890</Frequency><Timestamp dt:dt=""r8"">50507030306</Timestamp><Current dt:dt=""r8"">0</Current><DateUtc dt:dt=""string"">2015-05-26T12:02:18Z</DateUtc></FrequencyChange></FrequencyChanges></Clock>\n",Tweet_Rating_Chinese_Right-45-1,59.822,1.0.0.376,中文,1,研究生,-1031928969,Professional,2.0.10.353,2.0.10.353,05-26-2015,2015-05-26T12:02:00Z,13:02:19.000000,女,2.0.10.248,4,4,1,4,BlockProc,BlockList,18,0,2,1,1,1,54,1,1,NA,NA,NA,TrialProc,623e3,Yes,4484,627484,2,1907,629404,3,1745,631181,0,2716,633924,TrialList,睡眠是一片汪洋大海。,54,1,18
Tweet_Rating_Chinese_Right,45,1,18-30,"<?xml version=""1.0""?>\n<Clock xmlns:dt=""urn:schemas-microsoft-com:datatypes""><Description dt:dt=""string"">E-Prime Primary Realtime Clock</Description><StartTime><Timestamp dt:dt=""int"">0</Timestamp><DateUtc dt:dt=""string"">2015-05-26T12:02:18Z</DateUtc></StartTime><FrequencyChanges><FrequencyChange><Frequency dt:dt=""r8"">3312890</Frequency><Timestamp dt:dt=""r8"">50507030306</Timestamp><Current dt:dt=""r8"">0</Current><DateUtc dt:dt=""string"">2015-05-26T12:02:18Z</DateUtc></FrequencyChange></FrequencyChanges></Clock>\n",Tweet_Rating_Chinese_Right-45-1,59.822,1.0.0.376,中文,1,研究生,-1031928969,Professional,2.0.10.353,2.0.10.353,05-26-2015,2015-05-26T12:02:00Z,13:02:19.000000,女,2.0.10.248,4,4,1,4,BlockProc,BlockList,19,1,2,2,2,0,34,2,1,NA,NA,NA,TrialProc,639532,No,5895,645427,NA,0,0,3,1721,647171,0,1166,648355,TrialList,命运是一个可爱的天堂。,34,1,19
Tweet_Rating_Chinese_Right,45,1,18-30,"<?xml version=""1.0""?>\n<Clock xmlns:dt=""urn:schemas-microsoft-com:datatypes""><Description dt:dt=""string"">E-Prime Primary Realtime Clock</Description><StartTime><Timestamp dt:dt=""int"">0</Timestamp><DateUtc dt:dt=""string"">2015-05-26T12:02:18Z</DateUtc></StartTime><FrequencyChanges><FrequencyChange><Frequency dt:dt=""r8"">3312890</Frequency><Timestamp dt:dt=""r8"">50507030306</Timestamp><Current dt:dt=""r8"">0</Current><DateUtc dt:dt=""string"">2015-05-26T12:02:18Z</DateUtc></FrequencyChange></FrequencyChanges></Clock>\n",Tweet_Rating_Chinese_Right-45-1,59.822,1.0.0.376,中文,1,研究生,-1031928969,Professional,2.0.10.353,2.0.10.353,05-26-2015,2015-05-26T12:02:00Z,13:02:19.000000,女,2.0.10.248,4,4,1,4,BlockProc,BlockList,20,0,2,2,2,0,6,1,1,NA,NA,NA,TrialProc,653909,Yes,3214,657123,2,1899,659051,4,1736,660810,1,2453,663282,TrialList,艺术是一种温柔的爱。,6,1,20
Tweet_Rating_Chinese_Right,45,1,18-30,"<?xml version=""1.0""?>\n<Clock xmlns:dt=""urn:schemas-microsoft-com:datatypes""><Description dt:dt=""string"">E-Prime Primary Realtime Clock</Description><StartTime><Timestamp dt:dt=""int"">0</Timestamp><DateUtc dt:dt=""string"">2015-05-26T12:02:18Z</DateUtc></StartTime><FrequencyChanges><FrequencyChange><Frequency dt:dt=""r8"">3312890</Frequency><Timestamp dt:dt=""r8"">50507030306</Timestamp><Current dt:dt=""r8"">0</Current><DateUtc dt:dt=""string"">2015-05-26T12:02:18Z</DateUtc></FrequencyChange></FrequencyChanges></Clock>\n",Tweet_Rating_Chinese_Right-45-1,59.822,1.0.0.376,中文,1,研究生,-1031928969,Professional,2.0.10.353,2.0.10.353,05-26-2015,2015-05-26T12:02:00Z,13:02:19.000000,女,2.0.10.248,4,4,1,4,BlockProc,BlockList,21,0,2,2,2,0,38,2,2,NA,NA,NA,TrialProc,667900,No,4078,671978,NA,0,0,4,2854,674850,1,2091,676962,TrialList,爱是一种有益的药。,38,1,21
Tweet_Rating_Chinese_Right,45,1,18-30,"<?xml version=""1.0""?>\n<Clock xmlns:dt=""urn:schemas-microsoft-com:datatypes""><Description dt:dt=""string"">E-Prime Primary Realtime Clock</Description><StartTime><Timestamp dt:dt=""int"">0</Timestamp><DateUtc dt:dt=""string"">2015-05-26T12:02:18Z</DateUtc></StartTime><FrequencyChanges><FrequencyChange><Frequency dt:dt=""r8"">3312890</Frequency><Timestamp dt:dt=""r8"">50507030306</Timestamp><Current dt:dt=""r8"">0</Current><DateUtc dt:dt=""string"">2015-05-26T12:02:18Z</DateUtc></FrequencyChange></FrequencyChanges></Clock>\n",Tweet_Rating_Chinese_Right-45-1,59.822,1.0.0.376,中文,1,研究生,-1031928969,Professional,2.0.10.353,2.0.10.353,05-26-2015,2015-05-26T12:02:00Z,13:02:19.000000,女,2.0.10.248,4,4,1,4,BlockProc,BlockList,22,0,1,2,2,0,1,2,2,NA,NA,NA,TrialProc,681909,Yes,4692,686601,2,1858,688481,4,1970,690465,1,1893,692377,TrialList,话语是一首安慰的歌。,1,1,22
Tweet_Rating_Chinese_Right,45,1,18-30,"<?xml version=""1.0""?>\n<Clock xmlns:dt=""urn:schemas-microsoft-com:datatypes""><Description dt:dt=""string"">E-Prime Primary Realtime Clock</Description><StartTime><Timestamp dt:dt=""int"">0</Timestamp><DateUtc dt:dt=""string"">2015-05-26T12:02:18Z</DateUtc></StartTime><FrequencyChanges><FrequencyChange><Frequency dt:dt=""r8"">3312890</Frequency><Timestamp dt:dt=""r8"">50507030306</Timestamp><Current dt:dt=""r8"">0</Current><DateUtc dt:dt=""string"">2015-05-26T12:02:18Z</DateUtc></FrequencyChange></FrequencyChanges></Clock>\n",Tweet_Rating_Chinese_Right-45-1,59.822,1.0.0.376,中文,1,研究生,-1031928969,Professional,2.0.10.353,2.0.10.353,05-26-2015,2015-05-26T12:02:00Z,13:02:19.000000,女,2.0.10.248,4,4,1,4,BlockProc,BlockList,23,0,1,2,3,1,56,2,2,NA,NA,NA,TrialProc,698073,No,3696,701769,NA,0,0,1,2297,704081,0,1053,705161,TrialList,纪律是一种强化肥。,56,1,23
Tweet_Rating_Chinese_Right,45,1,18-30,"<?xml version=""1.0""?>\n<Clock xmlns:dt=""urn:schemas-microsoft-com:datatypes""><Description dt:dt=""string"">E-Prime Primary Realtime Clock</Description><StartTime><Timestamp dt:dt=""int"">0</Timestamp><DateUtc dt:dt=""string"">2015-05-26T12:02:18Z</DateUtc></StartTime><FrequencyChanges><FrequencyChange><Frequency dt:dt=""r8"">3312890</Frequency><Timestamp dt:dt=""r8"">50507030306</Timestamp><Current dt:dt=""r8"">0</Current><DateUtc dt:dt=""string"">2015-05-26T12:02:18Z</DateUtc></FrequencyChange></FrequencyChanges></Clock>\n",Tweet_Rating_Chinese_Right-45-1,59.822,1.0.0.376,中文,1,研究生,-1031928969,Professional,2.0.10.353,2.0.10.353,05-26-2015,2015-05-26T12:02:00Z,13:02:19.000000,女,2.0.10.248,4,4,1,4,BlockProc,BlockList,24,0,2,3,1,0,39,3,3,NA,NA,NA,TrialProc,710510,No,3226,713736,NA,0,0,1,1367,715120,0,923,716064,TrialList,政府是一副迷人的画卷。,39,1,24
Tweet_Rating_Chinese_Right,45,1,18-30,"<?xml version=""1.0""?>\n<Clock xmlns:dt=""urn:schemas-microsoft-com:datatypes""><Description dt:dt=""string"">E-Prime Primary Realtime Clock</Description><StartTime><Timestamp dt:dt=""int"">0</Timestamp><DateUtc dt:dt=""string"">2015-05-26T12:02:18Z</DateUtc></StartTime><FrequencyChanges><FrequencyChange><Frequency dt:dt=""r8"">3312890</Frequency><Timestamp dt:dt=""r8"">50507030306</Timestamp><Current dt:dt=""r8"">0</Current><DateUtc dt:dt=""string"">2015-05-26T12:02:18Z</DateUtc></FrequencyChange></FrequencyChanges></Clock>\n",Tweet_Rating_Chinese_Right-45-1,59.822,1.0.0.376,中文,1,研究生,-1031928969,Professional,2.0.10.353,2.0.10.353,05-26-2015,2015-05-26T12:02:00Z,13:02:19.000000,女,2.0.10.248,4,4,1,4,BlockProc,BlockList,25,0,1,2,2,0,46,1,1,NA,NA,NA,TrialProc,721192,Yes,3392,724584,1,1230,725832,3,1832,727688,0,992,728704,TrialList,想象是一种有吸引力的美。,46,1,25
Tweet_Rating_Chinese_Right,45,1,18-30,"<?xml version=""1.0""?>\n<Clock xmlns:dt=""urn:schemas-microsoft-com:datatypes""><Description dt:dt=""string"">E-Prime Primary Realtime Clock</Description><StartTime><Timestamp dt:dt=""int"">0</Timestamp><DateUtc dt:dt=""string"">2015-05-26T12:02:18Z</DateUtc></StartTime><FrequencyChanges><FrequencyChange><Frequency dt:dt=""r8"">3312890</Frequency><Timestamp dt:dt=""r8"">50507030306</Timestamp><Current dt:dt=""r8"">0</Current><DateUtc dt:dt=""string"">2015-05-26T12:02:18Z</DateUtc></FrequencyChange></FrequencyChanges></Clock>\n",Tweet_Rating_Chinese_Right-45-1,59.822,1.0.0.376,中文,1,研究生,-1031928969,Professional,2.0.10.353,2.0.10.353,05-26-2015,2015-05-26T12:02:00Z,13:02:19.000000,女,2.0.10.248,4,4,1,4,BlockProc,BlockList,26,0,2,1,1,0,12,1,1,NA,NA,NA,TrialProc,735017,Yes,3735,738752,2,1421,740199,3,1016,741231,0,1771,743023,TrialList,生活是一场愉快的喜剧。,12,1,26
Tweet_Rating_Chinese_Right,45,1,18-30,"<?xml version=""1.0""?>\n<Clock xmlns:dt=""urn:schemas-microsoft-com:datatypes""><Description dt:dt=""string"">E-Prime Primary Realtime Clock</Description><StartTime><Timestamp dt:dt=""int"">0</Timestamp><DateUtc dt:dt=""string"">2015-05-26T12:02:18Z</DateUtc></StartTime><FrequencyChanges><FrequencyChange><Frequency dt:dt=""r8"">3312890</Frequency><Timestamp dt:dt=""r8"">50507030306</Timestamp><Current dt:dt=""r8"">0</Current><DateUtc dt:dt=""string"">2015-05-26T12:02:18Z</DateUtc></FrequencyChange></FrequencyChanges></Clock>\n",Tweet_Rating_Chinese_Right-45-1,59.822,1.0.0.376,中文,1,研究生,-1031928969,Professional,2.0.10.353,2.0.10.353,05-26-2015,2015-05-26T12:02:00Z,13:02:19.000000,女,2.0.10.248,4,4,1,4,BlockProc,BlockList,27,1,1,2,2,0,9,3,2,NA,NA,NA,TrialProc,748106,No,6093,754199,NA,0,0,2,1423,755647,0,466,756127,TrialList,权力是一团安慰的火。,9,1,27
Tweet_Rating_Chinese_Right,45,1,18-30,"<?xml version=""1.0""?>\n<Clock xmlns:dt=""urn:schemas-microsoft-com:datatypes""><Description dt:dt=""string"">E-Prime Primary Realtime Clock</Description><StartTime><Timestamp dt:dt=""int"">0</Timestamp><DateUtc dt:dt=""string"">2015-05-26T12:02:18Z</DateUtc></StartTime><FrequencyChanges><FrequencyChange><Frequency dt:dt=""r8"">3312890</Frequency><Timestamp dt:dt=""r8"">50507030306</Timestamp><Current dt:dt=""r8"">0</Current><DateUtc dt:dt=""string"">2015-05-26T12:02:18Z</DateUtc></FrequencyChange></FrequencyChanges></Clock>\n",Tweet_Rating_Chinese_Right-45-1,59.822,1.0.0.376,中文,1,研究生,-1031928969,Professional,2.0.10.353,2.0.10.353,05-26-2015,2015-05-26T12:02:00Z,13:02:19.000000,女,2.0.10.248,4,4,1,4,BlockProc,BlockList,28,1,2,3,2,0,50,3,1,NA,NA,NA,TrialProc,760843,Yes,3596,764439,2,1768,766222,4,1619,767862,1,509,768390,TrialList,真理是一个绝色美女。,50,1,28
Tweet_Rating_Chinese_Right,45,1,18-30,"<?xml version=""1.0""?>\n<Clock xmlns:dt=""urn:schemas-microsoft-com:datatypes""><Description dt:dt=""string"">E-Prime Primary Realtime Clock</Description><StartTime><Timestamp dt:dt=""int"">0</Timestamp><DateUtc dt:dt=""string"">2015-05-26T12:02:18Z</DateUtc></StartTime><FrequencyChanges><FrequencyChange><Frequency dt:dt=""r8"">3312890</Frequency><Timestamp dt:dt=""r8"">50507030306</Timestamp><Current dt:dt=""r8"">0</Current><DateUtc dt:dt=""string"">2015-05-26T12:02:18Z</DateUtc></FrequencyChange></FrequencyChanges></Clock>\n",Tweet_Rating_Chinese_Right-45-1,59.822,1.0.0.376,中文,1,研究生,-1031928969,Professional,2.0.10.353,2.0.10.353,05-26-2015,2015-05-26T12:02:00Z,13:02:19.000000,女,2.0.10.248,4,4,1,4,BlockProc,BlockList,29,0,2,2,1,0,4,3,3,NA,NA,NA,TrialProc,773030,No,3400,776430,NA,0,0,1,2085,778542,0,611,779174,TrialList,恐惧是一种甜蜜的爱情。,4,1,29
Tweet_Rating_Chinese_Right,45,1,18-30,"<?xml version=""1.0""?>\n<Clock xmlns:dt=""urn:schemas-microsoft-com:datatypes""><Description dt:dt=""string"">E-Prime Primary Realtime Clock</Description><StartTime><Timestamp dt:dt=""int"">0</Timestamp><DateUtc dt:dt=""string"">2015-05-26T12:02:18Z</DateUtc></StartTime><FrequencyChanges><FrequencyChange><Frequency dt:dt=""r8"">3312890</Frequency><Timestamp dt:dt=""r8"">50507030306</Timestamp><Current dt:dt=""r8"">0</Current><DateUtc dt:dt=""string"">2015-05-26T12:02:18Z</DateUtc></FrequencyChange></FrequencyChanges></Clock>\n",Tweet_Rating_Chinese_Right-45-1,59.822,1.0.0.376,中文,1,研究生,-1031928969,Professional,2.0.10.353,2.0.10.353,05-26-2015,2015-05-26T12:02:00Z,13:02:19.000000,女,2.0.10.248,4,4,1,4,BlockProc,BlockList,30,1,2,3,2,0,2,3,2,NA,NA,NA,TrialProc,783511,Yes,3895,787406,1,1576,788998,3,899,789910,0,4491,794421,TrialList,宗教是一首轻松的音乐。,2,1,30
Tweet_Rating_Chinese_Right,45,1,18-30,"<?xml version=""1.0""?>\n<Clock xmlns:dt=""urn:schemas-microsoft-com:datatypes""><Description dt:dt=""string"">E-Prime Primary Realtime Clock</Description><StartTime><Timestamp dt:dt=""int"">0</Timestamp><DateUtc dt:dt=""string"">2015-05-26T12:02:18Z</DateUtc></StartTime><FrequencyChanges><FrequencyChange><Frequency dt:dt=""r8"">3312890</Frequency><Timestamp dt:dt=""r8"">50507030306</Timestamp><Current dt:dt=""r8"">0</Current><DateUtc dt:dt=""string"">2015-05-26T12:02:18Z</DateUtc></FrequencyChange></FrequencyChanges></Clock>\n",Tweet_Rating_Chinese_Right-45-1,59.822,1.0.0.376,中文,1,研究生,-1031928969,Professional,2.0.10.353,2.0.10.353,05-26-2015,2015-05-26T12:02:00Z,13:02:19.000000,女,2.0.10.248,4,4,1,4,BlockProc,BlockList,31,0,2,2,2,1,60,1,1,NA,NA,NA,TrialProc,799325,No,4904,804229,NA,0,0,2,1333,805589,0,755,806365,TrialList,教育是一个发光的灯笼。,60,1,31
Tweet_Rating_Chinese_Right,45,1,18-30,"<?xml version=""1.0""?>\n<Clock xmlns:dt=""urn:schemas-microsoft-com:datatypes""><Description dt:dt=""string"">E-Prime Primary Realtime Clock</Description><StartTime><Timestamp dt:dt=""int"">0</Timestamp><DateUtc dt:dt=""string"">2015-05-26T12:02:18Z</DateUtc></StartTime><FrequencyChanges><FrequencyChange><Frequency dt:dt=""r8"">3312890</Frequency><Timestamp dt:dt=""r8"">50507030306</Timestamp><Current dt:dt=""r8"">0</Current><DateUtc dt:dt=""string"">2015-05-26T12:02:18Z</DateUtc></FrequencyChange></FrequencyChanges></Clock>\n",Tweet_Rating_Chinese_Right-45-1,59.822,1.0.0.376,中文,1,研究生,-1031928969,Professional,2.0.10.353,2.0.10.353,05-26-2015,2015-05-26T12:02:00Z,13:02:19.000000,女,2.0.10.248,4,4,1,4,BlockProc,BlockList,32,0,1,1,2,0,47,1,1,NA,NA,NA,TrialProc,810441,Yes,3132,813573,3,1301,814901,5,1740,816661,1,2184,818860,TrialList,学习是一项有价值的投资。,47,1,32
Tweet_Rating_Chinese_Right,45,1,18-30,"<?xml version=""1.0""?>\n<Clock xmlns:dt=""urn:schemas-microsoft-com:datatypes""><Description dt:dt=""string"">E-Prime Primary Realtime Clock</Description><StartTime><Timestamp dt:dt=""int"">0</Timestamp><DateUtc dt:dt=""string"">2015-05-26T12:02:18Z</DateUtc></StartTime><FrequencyChanges><FrequencyChange><Frequency dt:dt=""r8"">3312890</Frequency><Timestamp dt:dt=""r8"">50507030306</Timestamp><Current dt:dt=""r8"">0</Current><DateUtc dt:dt=""string"">2015-05-26T12:02:18Z</DateUtc></FrequencyChange></FrequencyChanges></Clock>\n",Tweet_Rating_Chinese_Right-45-1,59.822,1.0.0.376,中文,1,研究生,-1031928969,Professional,2.0.10.353,2.0.10.353,05-26-2015,2015-05-26T12:02:00Z,13:02:19.000000,女,2.0.10.248,4,4,1,4,BlockProc,BlockList,33,0,2,1,1,0,8,3,3,NA,NA,NA,TrialProc,823914,No,3306,827220,NA,0,0,1,1507,828748,0,530,829292,TrialList,战争是温柔的爱。,8,1,33
Tweet_Rating_Chinese_Right,45,1,18-30,"<?xml version=""1.0""?>\n<Clock xmlns:dt=""urn:schemas-microsoft-com:datatypes""><Description dt:dt=""string"">E-Prime Primary Realtime Clock</Description><StartTime><Timestamp dt:dt=""int"">0</Timestamp><DateUtc dt:dt=""string"">2015-05-26T12:02:18Z</DateUtc></StartTime><FrequencyChanges><FrequencyChange><Frequency dt:dt=""r8"">3312890</Frequency><Timestamp dt:dt=""r8"">50507030306</Timestamp><Current dt:dt=""r8"">0</Current><DateUtc dt:dt=""string"">2015-05-26T12:02:18Z</DateUtc></FrequencyChange></FrequencyChanges></Clock>\n",Tweet_Rating_Chinese_Right-45-1,59.822,1.0.0.376,中文,1,研究生,-1031928969,Professional,2.0.10.353,2.0.10.353,05-26-2015,2015-05-26T12:02:00Z,13:02:19.000000,女,2.0.10.248,4,4,1,4,BlockProc,BlockList,34,1,1,1,2,0,17,3,2,NA,NA,NA,TrialProc,834930,Yes,6706,841636,1,2010,843660,3,994,844667,0,2342,847035,TrialList,创作是温暖的光。,17,1,34
Tweet_Rating_Chinese_Right,45,1,18-30,"<?xml version=""1.0""?>\n<Clock xmlns:dt=""urn:schemas-microsoft-com:datatypes""><Description dt:dt=""string"">E-Prime Primary Realtime Clock</Description><StartTime><Timestamp dt:dt=""int"">0</Timestamp><DateUtc dt:dt=""string"">2015-05-26T12:02:18Z</DateUtc></StartTime><FrequencyChanges><FrequencyChange><Frequency dt:dt=""r8"">3312890</Frequency><Timestamp dt:dt=""r8"">50507030306</Timestamp><Current dt:dt=""r8"">0</Current><DateUtc dt:dt=""string"">2015-05-26T12:02:18Z</DateUtc></FrequencyChange></FrequencyChanges></Clock>\n",Tweet_Rating_Chinese_Right-45-1,59.822,1.0.0.376,中文,1,研究生,-1031928969,Professional,2.0.10.353,2.0.10.353,05-26-2015,2015-05-26T12:02:00Z,13:02:19.000000,女,2.0.10.248,4,4,1,4,BlockProc,BlockList,35,0,1,2,2,1,51,1,1,NA,NA,NA,TrialProc,851814,No,3061,854875,NA,0,0,1,1609,856499,0,1179,857707,TrialList,智慧是一个遥远的外国人。,51,1,35
Tweet_Rating_Chinese_Right,45,1,18-30,"<?xml version=""1.0""?>\n<Clock xmlns:dt=""urn:schemas-microsoft-com:datatypes""><Description dt:dt=""string"">E-Prime Primary Realtime Clock</Description><StartTime><Timestamp dt:dt=""int"">0</Timestamp><DateUtc dt:dt=""string"">2015-05-26T12:02:18Z</DateUtc></StartTime><FrequencyChanges><FrequencyChange><Frequency dt:dt=""r8"">3312890</Frequency><Timestamp dt:dt=""r8"">50507030306</Timestamp><Current dt:dt=""r8"">0</Current><DateUtc dt:dt=""string"">2015-05-26T12:02:18Z</DateUtc></FrequencyChange></FrequencyChanges></Clock>\n",Tweet_Rating_Chinese_Right-45-1,59.822,1.0.0.376,中文,1,研究生,-1031928969,Professional,2.0.10.353,2.0.10.353,05-26-2015,2015-05-26T12:02:00Z,13:02:19.000000,女,2.0.10.248,4,4,1,4,BlockProc,BlockList,36,0,2,3,3,0,24,1,1,NA,NA,NA,TrialProc,862379,Yes,5176,867555,2,1297,868875,4,1177,870075,1,1180,871282,TrialList,婚姻是炙热的地狱。,24,1,36
Tweet_Rating_Chinese_Right,45,1,18-30,"<?xml version=""1.0""?>\n<Clock xmlns:dt=""urn:schemas-microsoft-com:datatypes""><Description dt:dt=""string"">E-Prime Primary Realtime Clock</Description><StartTime><Timestamp dt:dt=""int"">0</Timestamp><DateUtc dt:dt=""string"">2015-05-26T12:02:18Z</DateUtc></StartTime><FrequencyChanges><FrequencyChange><Frequency dt:dt=""r8"">3312890</Frequency><Timestamp dt:dt=""r8"">50507030306</Timestamp><Current dt:dt=""r8"">0</Current><DateUtc dt:dt=""string"">2015-05-26T12:02:18Z</DateUtc></FrequencyChange></FrequencyChanges></Clock>\n",Tweet_Rating_Chinese_Right-45-1,59.822,1.0.0.376,中文,1,研究生,-1031928969,Professional,2.0.10.353,2.0.10.353,05-26-2015,2015-05-26T12:02:00Z,13:02:19.000000,女,2.0.10.248,4,4,1,4,BlockProc,BlockList,37,0,2,2,2,1,58,2,2,NA,NA,NA,TrialProc,875568,Yes,2274,877842,3,1784,879642,5,3562,883226,1,1801,885042,TrialList,历史是一面破碎的镜子。,58,1,37
Tweet_Rating_Chinese_Right,45,1,18-30,"<?xml version=""1.0""?>\n<Clock xmlns:dt=""urn:schemas-microsoft-com:datatypes""><Description dt:dt=""string"">E-Prime Primary Realtime Clock</Description><StartTime><Timestamp dt:dt=""int"">0</Timestamp><DateUtc dt:dt=""string"">2015-05-26T12:02:18Z</DateUtc></StartTime><FrequencyChanges><FrequencyChange><Frequency dt:dt=""r8"">3312890</Frequency><Timestamp dt:dt=""r8"">50507030306</Timestamp><Current dt:dt=""r8"">0</Current><DateUtc dt:dt=""string"">2015-05-26T12:02:18Z</DateUtc></FrequencyChange></FrequencyChanges></Clock>\n",Tweet_Rating_Chinese_Right-45-1,59.822,1.0.0.376,中文,1,研究生,-1031928969,Professional,2.0.10.353,2.0.10.353,05-26-2015,2015-05-26T12:02:00Z,13:02:19.000000,女,2.0.10.248,4,4,1,4,BlockProc,BlockList,38,0,2,1,1,0,7,1,1,NA,NA,NA,TrialProc,891181,Yes,3149,894330,2,1117,895474,3,884,896378,0,3924,900321,TrialList,语言是一种著名的艺术。,7,1,38
Tweet_Rating_Chinese_Right,45,1,18-30,"<?xml version=""1.0""?>\n<Clock xmlns:dt=""urn:schemas-microsoft-com:datatypes""><Description dt:dt=""string"">E-Prime Primary Realtime Clock</Description><StartTime><Timestamp dt:dt=""int"">0</Timestamp><DateUtc dt:dt=""string"">2015-05-26T12:02:18Z</DateUtc></StartTime><FrequencyChanges><FrequencyChange><Frequency dt:dt=""r8"">3312890</Frequency><Timestamp dt:dt=""r8"">50507030306</Timestamp><Current dt:dt=""r8"">0</Current><DateUtc dt:dt=""string"">2015-05-26T12:02:18Z</DateUtc></FrequencyChange></FrequencyChanges></Clock>\n",Tweet_Rating_Chinese_Right-45-1,59.822,1.0.0.376,中文,1,研究生,-1031928969,Professional,2.0.10.353,2.0.10.353,05-26-2015,2015-05-26T12:02:00Z,13:02:19.000000,女,2.0.10.248,4,4,1,4,BlockProc,BlockList,39,1,2,2,2,1,55,3,2,NA,NA,NA,TrialProc,915721,Yes,3776,919497,2,2054,921569,4,2484,924072,1,1600,925696,TrialList,睡眠是一片汪洋大海。,55,1,39
Tweet_Rating_Chinese_Right,45,1,18-30,"<?xml version=""1.0""?>\n<Clock xmlns:dt=""urn:schemas-microsoft-com:datatypes""><Description dt:dt=""string"">E-Prime Primary Realtime Clock</Description><StartTime><Timestamp dt:dt=""int"">0</Timestamp><DateUtc dt:dt=""string"">2015-05-26T12:02:18Z</DateUtc></StartTime><FrequencyChanges><FrequencyChange><Frequency dt:dt=""r8"">3312890</Frequency><Timestamp dt:dt=""r8"">50507030306</Timestamp><Current dt:dt=""r8"">0</Current><DateUtc dt:dt=""string"">2015-05-26T12:02:18Z</DateUtc></FrequencyChange></FrequencyChanges></Clock>\n",Tweet_Rating_Chinese_Right-45-1,59.822,1.0.0.376,中文,1,研究生,-1031928969,Professional,2.0.10.353,2.0.10.353,05-26-2015,2015-05-26T12:02:00Z,13:02:19.000000,女,2.0.10.248,4,4,1,4,BlockProc,BlockList,40,0,1,1,2,0,33,2,2,NA,NA,NA,TrialProc,930866,No,3478,934344,NA,0,0,1,5328,939688,0,707,940416,TrialList,编程是一个珍贵的艺术品。,33,1,40
Tweet_Rating_Chinese_Right,45,1,18-30,"<?xml version=""1.0""?>\n<Clock xmlns:dt=""urn:schemas-microsoft-com:datatypes""><Description dt:dt=""string"">E-Prime Primary Realtime Clock</Description><StartTime><Timestamp dt:dt=""int"">0</Timestamp><DateUtc dt:dt=""string"">2015-05-26T12:02:18Z</DateUtc></StartTime><FrequencyChanges><FrequencyChange><Frequency dt:dt=""r8"">3312890</Frequency><Timestamp dt:dt=""r8"">50507030306</Timestamp><Current dt:dt=""r8"">0</Current><DateUtc dt:dt=""string"">2015-05-26T12:02:18Z</DateUtc></FrequencyChange></FrequencyChanges></Clock>\n",Tweet_Rating_Chinese_Right-45-1,59.822,1.0.0.376,中文,1,研究生,-1031928969,Professional,2.0.10.353,2.0.10.353,05-26-2015,2015-05-26T12:02:00Z,13:02:19.000000,女,2.0.10.248,4,4,1,4,BlockProc,BlockList,41,1,2,3,2,0,23,3,2,NA,NA,NA,TrialProc,945376,No,7463,952839,NA,0,0,2,1702,954567,0,749,955335,TrialList,真理是一首舒缓的音乐。,23,1,41
Tweet_Rating_Chinese_Right,45,1,18-30,"<?xml version=""1.0""?>\n<Clock xmlns:dt=""urn:schemas-microsoft-com:datatypes""><Description dt:dt=""string"">E-Prime Primary Realtime Clock</Description><StartTime><Timestamp dt:dt=""int"">0</Timestamp><DateUtc dt:dt=""string"">2015-05-26T12:02:18Z</DateUtc></StartTime><FrequencyChanges><FrequencyChange><Frequency dt:dt=""r8"">3312890</Frequency><Timestamp dt:dt=""r8"">50507030306</Timestamp><Current dt:dt=""r8"">0</Current><DateUtc dt:dt=""string"">2015-05-26T12:02:18Z</DateUtc></FrequencyChange></FrequencyChanges></Clock>\n",Tweet_Rating_Chinese_Right-45-1,59.822,1.0.0.376,中文,1,研究生,-1031928969,Professional,2.0.10.353,2.0.10.353,05-26-2015,2015-05-26T12:02:00Z,13:02:19.000000,女,2.0.10.248,4,4,1,4,BlockProc,BlockList,42,0,2,1,2,0,20,3,3,NA,NA,NA,TrialProc,961407,No,4144,965551,NA,0,0,2,1998,967567,0,503,968095,TrialList,战争是令人兴奋的爱。,20,1,42
Tweet_Rating_Chinese_Right,45,1,18-30,"<?xml version=""1.0""?>\n<Clock xmlns:dt=""urn:schemas-microsoft-com:datatypes""><Description dt:dt=""string"">E-Prime Primary Realtime Clock</Description><StartTime><Timestamp dt:dt=""int"">0</Timestamp><DateUtc dt:dt=""string"">2015-05-26T12:02:18Z</DateUtc></StartTime><FrequencyChanges><FrequencyChange><Frequency dt:dt=""r8"">3312890</Frequency><Timestamp dt:dt=""r8"">50507030306</Timestamp><Current dt:dt=""r8"">0</Current><DateUtc dt:dt=""string"">2015-05-26T12:02:18Z</DateUtc></FrequencyChange></FrequencyChanges></Clock>\n",Tweet_Rating_Chinese_Right-45-1,59.822,1.0.0.376,中文,1,研究生,-1031928969,Professional,2.0.10.353,2.0.10.353,05-26-2015,2015-05-26T12:02:00Z,13:02:19.000000,女,2.0.10.248,4,4,1,4,BlockProc,BlockList,43,1,1,2,1,1,53,3,2,NA,NA,NA,TrialProc,973409,Yes,2741,976150,3,1551,977718,5,2459,980198,1,2737,982966,TrialList,时间是一个很好的医生。,53,1,43
Tweet_Rating_Chinese_Right,45,1,18-30,"<?xml version=""1.0""?>\n<Clock xmlns:dt=""urn:schemas-microsoft-com:datatypes""><Description dt:dt=""string"">E-Prime Primary Realtime Clock</Description><StartTime><Timestamp dt:dt=""int"">0</Timestamp><DateUtc dt:dt=""string"">2015-05-26T12:02:18Z</DateUtc></StartTime><FrequencyChanges><FrequencyChange><Frequency dt:dt=""r8"">3312890</Frequency><Timestamp dt:dt=""r8"">50507030306</Timestamp><Current dt:dt=""r8"">0</Current><DateUtc dt:dt=""string"">2015-05-26T12:02:18Z</DateUtc></FrequencyChange></FrequencyChanges></Clock>\n",Tweet_Rating_Chinese_Right-45-1,59.822,1.0.0.376,中文,1,研究生,-1031928969,Professional,2.0.10.353,2.0.10.353,05-26-2015,2015-05-26T12:02:00Z,13:02:19.000000,女,2.0.10.248,4,4,1,4,BlockProc,BlockList,44,1,1,1,2,0,48,1,3,NA,NA,NA,TrialProc,989858,No,3812,993670,NA,0,0,2,1744,995430,1,980,996438,TrialList,政府是一束温暖的光。,48,1,44
Tweet_Rating_Chinese_Right,45,1,18-30,"<?xml version=""1.0""?>\n<Clock xmlns:dt=""urn:schemas-microsoft-com:datatypes""><Description dt:dt=""string"">E-Prime Primary Realtime Clock</Description><StartTime><Timestamp dt:dt=""int"">0</Timestamp><DateUtc dt:dt=""string"">2015-05-26T12:02:18Z</DateUtc></StartTime><FrequencyChanges><FrequencyChange><Frequency dt:dt=""r8"">3312890</Frequency><Timestamp dt:dt=""r8"">50507030306</Timestamp><Current dt:dt=""r8"">0</Current><DateUtc dt:dt=""string"">2015-05-26T12:02:18Z</DateUtc></FrequencyChange></FrequencyChanges></Clock>\n",Tweet_Rating_Chinese_Right-45-1,59.822,1.0.0.376,中文,1,研究生,-1031928969,Professional,2.0.10.353,2.0.10.353,05-26-2015,2015-05-26T12:02:00Z,13:02:19.000000,女,2.0.10.248,4,4,1,4,BlockProc,BlockList,45,0,3,2,2,0,37,1,1,NA,NA,NA,TrialProc,1003465,Yes,3428,1006893,2,1288,1008197,4,4424,1012637,1,2234,1014893,TrialList,爱情是一副美丽的图画。,37,1,45
Tweet_Rating_Chinese_Right,45,1,18-30,"<?xml version=""1.0""?>\n<Clock xmlns:dt=""urn:schemas-microsoft-com:datatypes""><Description dt:dt=""string"">E-Prime Primary Realtime Clock</Description><StartTime><Timestamp dt:dt=""int"">0</Timestamp><DateUtc dt:dt=""string"">2015-05-26T12:02:18Z</DateUtc></StartTime><FrequencyChanges><FrequencyChange><Frequency dt:dt=""r8"">3312890</Frequency><Timestamp dt:dt=""r8"">50507030306</Timestamp><Current dt:dt=""r8"">0</Current><DateUtc dt:dt=""string"">2015-05-26T12:02:18Z</DateUtc></FrequencyChange></FrequencyChanges></Clock>\n",Tweet_Rating_Chinese_Right-45-1,59.822,1.0.0.376,中文,1,研究生,-1031928969,Professional,2.0.10.353,2.0.10.353,05-26-2015,2015-05-26T12:02:00Z,13:02:19.000000,女,2.0.10.248,4,4,1,4,BlockProc,BlockList,46,0,2,1,2,0,26,3,3,NA,NA,NA,TrialProc,1021519,No,3646,1025165,NA,0,0,1,1657,1026837,0,810,1027661,TrialList,财务是一杯美味的葡萄酒。,26,1,46
Tweet_Rating_Chinese_Right,45,1,18-30,"<?xml version=""1.0""?>\n<Clock xmlns:dt=""urn:schemas-microsoft-com:datatypes""><Description dt:dt=""string"">E-Prime Primary Realtime Clock</Description><StartTime><Timestamp dt:dt=""int"">0</Timestamp><DateUtc dt:dt=""string"">2015-05-26T12:02:18Z</DateUtc></StartTime><FrequencyChanges><FrequencyChange><Frequency dt:dt=""r8"">3312890</Frequency><Timestamp dt:dt=""r8"">50507030306</Timestamp><Current dt:dt=""r8"">0</Current><DateUtc dt:dt=""string"">2015-05-26T12:02:18Z</DateUtc></FrequencyChange></FrequencyChanges></Clock>\n",Tweet_Rating_Chinese_Right-45-1,59.822,1.0.0.376,中文,1,研究生,-1031928969,Professional,2.0.10.353,2.0.10.353,05-26-2015,2015-05-26T12:02:00Z,13:02:19.000000,女,2.0.10.248,4,4,1,4,BlockProc,BlockList,47,0,2,2,3,0,13,2,2,NA,NA,NA,TrialProc,1032518,Yes,4398,1036916,2,1313,1038244,4,2095,1040364,1,1228,1041620,TrialList,生命是一杯诱人的葡萄酒。,13,1,47
Tweet_Rating_Chinese_Right,45,1,18-30,"<?xml version=""1.0""?>\n<Clock xmlns:dt=""urn:schemas-microsoft-com:datatypes""><Description dt:dt=""string"">E-Prime Primary Realtime Clock</Description><StartTime><Timestamp dt:dt=""int"">0</Timestamp><DateUtc dt:dt=""string"">2015-05-26T12:02:18Z</DateUtc></StartTime><FrequencyChanges><FrequencyChange><Frequency dt:dt=""r8"">3312890</Frequency><Timestamp dt:dt=""r8"">50507030306</Timestamp><Current dt:dt=""r8"">0</Current><DateUtc dt:dt=""string"">2015-05-26T12:02:18Z</DateUtc></FrequencyChange></FrequencyChanges></Clock>\n",Tweet_Rating_Chinese_Right-45-1,59.822,1.0.0.376,中文,1,研究生,-1031928969,Professional,2.0.10.353,2.0.10.353,05-26-2015,2015-05-26T12:02:00Z,13:02:19.000000,女,2.0.10.248,4,4,1,4,BlockProc,BlockList,48,0,2,1,2,0,28,2,2,NA,NA,NA,TrialProc,1046025,Yes,2387,1048412,2,1660,1050092,4,2140,1052244,1,3415,1055675,TrialList,爱情是闪闪发光的彩虹。,28,1,48
Tweet_Rating_Chinese_Right,45,1,18-30,"<?xml version=""1.0""?>\n<Clock xmlns:dt=""urn:schemas-microsoft-com:datatypes""><Description dt:dt=""string"">E-Prime Primary Realtime Clock</Description><StartTime><Timestamp dt:dt=""int"">0</Timestamp><DateUtc dt:dt=""string"">2015-05-26T12:02:18Z</DateUtc></StartTime><FrequencyChanges><FrequencyChange><Frequency dt:dt=""r8"">3312890</Frequency><Timestamp dt:dt=""r8"">50507030306</Timestamp><Current dt:dt=""r8"">0</Current><DateUtc dt:dt=""string"">2015-05-26T12:02:18Z</DateUtc></FrequencyChange></FrequencyChanges></Clock>\n",Tweet_Rating_Chinese_Right-45-1,59.822,1.0.0.376,中文,1,研究生,-1031928969,Professional,2.0.10.353,2.0.10.353,05-26-2015,2015-05-26T12:02:00Z,13:02:19.000000,女,2.0.10.248,4,4,1,4,BlockProc,BlockList,49,0,2,1,2,0,19,3,3,NA,NA,NA,TrialProc,1060284,No,3511,1063795,NA,0,0,1,1280,1065091,0,704,1065819,TrialList,障碍是平静的睡眠。,19,1,49
Tweet_Rating_Chinese_Right,45,1,18-30,"<?xml version=""1.0""?>\n<Clock xmlns:dt=""urn:schemas-microsoft-com:datatypes""><Description dt:dt=""string"">E-Prime Primary Realtime Clock</Description><StartTime><Timestamp dt:dt=""int"">0</Timestamp><DateUtc dt:dt=""string"">2015-05-26T12:02:18Z</DateUtc></StartTime><FrequencyChanges><FrequencyChange><Frequency dt:dt=""r8"">3312890</Frequency><Timestamp dt:dt=""r8"">50507030306</Timestamp><Current dt:dt=""r8"">0</Current><DateUtc dt:dt=""string"">2015-05-26T12:02:18Z</DateUtc></FrequencyChange></FrequencyChanges></Clock>\n",Tweet_Rating_Chinese_Right-45-1,59.822,1.0.0.376,中文,1,研究生,-1031928969,Professional,2.0.10.353,2.0.10.353,05-26-2015,2015-05-26T12:02:00Z,13:02:19.000000,女,2.0.10.248,4,4,1,4,BlockProc,BlockList,50,0,2,2,1,0,41,1,1,NA,NA,NA,TrialProc,1070615,Yes,3260,1073875,2,1320,1075211,3,1046,1076275,0,1752,1078051,TrialList,死亡是轻松的睡眠。,41,1,50
