ExperimentName,Subject,Handedness,Session,Age,Clock.Information,DataFile.Basename,Display.RefreshRate,ExperimentVersion,FirstLanguage,Group,Occupation,RandomSeed,RuntimeCapabilities,RuntimeVersion,RuntimeVersionExpected,SessionDate,SessionStartDateTimeUtc,SessionTime,Sex,StudioVersion,Block,BlockList,BlockList.Cycle,BlockList.Sample,Procedure[Block],Running[Block],Trial,CrossLangDiff,Expression,Form_Form_Chinese,Form_Form_English,Form_Form_Spanish,HumanORComputer,MetaphorID,Novelty_Chinese,Novelty_European,PostBlockList,PostBlockList.Cycle,PostBlockList.Sample,PracList,PracList.Cycle,PracList.Sample,Procedure[Trial],Q1.OnsetTime,Q1.RESP,Q1.RT,Q1.RTTime,Q2.RESP,Q2.RT,Q2.RTTime,Q3.RESP,Q3.RT,Q3.RTTime,Q4.RESP,Q4.RT,Q4.RTTime,Running[Trial],Stimuli,TextInput.RESP,TrialList,TrialList.Cycle,TrialList.Sample
Tweet_Rating_English_Right,111,1,1,31-45,"<?xml version=""1.0""?>\n<Clock xmlns:dt=""urn:schemas-microsoft-com:datatypes""><Description dt:dt=""string"">E-Prime Primary Realtime Clock</Description><StartTime><Timestamp dt:dt=""int"">0</Timestamp><DateUtc dt:dt=""string"">2015-05-26T09:04:17Z</DateUtc></StartTime><FrequencyChanges><FrequencyChange><Frequency dt:dt=""r8"">3312890</Frequency><Timestamp dt:dt=""r8"">15121508198</Timestamp><Current dt:dt=""r8"">0</Current><DateUtc dt:dt=""string"">2015-05-26T09:04:17Z</DateUtc></FrequencyChange></FrequencyChanges></Clock>\n",Tweet_Rating_English_Right-41-1,59.821,1.0.0.325,English,1,Postgraduate student,-2057731985,Professional,2.0.10.353,2.0.10.353,05-26-2015,26/05/2015 09:04,10:04:17,male,2.0.10.248,4,4,1,4,BlockProc,BlockList,1,0,,2,2,2,c,6,1,1,,,,,,,TrialProc,238231,Yes,3718,241949,2,2318,244293,4,2842,247157,human,3799,250973,TrialList,Art is gentle love.,,6,1,1
Tweet_Rating_English_Right,111,1,1,31-45,"<?xml version=""1.0""?>\n<Clock xmlns:dt=""urn:schemas-microsoft-com:datatypes""><Description dt:dt=""string"">E-Prime Primary Realtime Clock</Description><StartTime><Timestamp dt:dt=""int"">0</Timestamp><DateUtc dt:dt=""string"">2015-05-26T09:04:17Z</DateUtc></StartTime><FrequencyChanges><FrequencyChange><Frequency dt:dt=""r8"">3312890</Frequency><Timestamp dt:dt=""r8"">15121508198</Timestamp><Current dt:dt=""r8"">0</Current><DateUtc dt:dt=""string"">2015-05-26T09:04:17Z</DateUtc></FrequencyChange></FrequencyChanges></Clock>\n",Tweet_Rating_English_Right-41-1,59.821,1.0.0.325,English,1,Postgraduate student,-2057731985,Professional,2.0.10.353,2.0.10.353,05-26-2015,26/05/2015 09:04,10:04:17,male,2.0.10.248,4,4,1,4,BlockProc,BlockList,2,0,,1,1,2,c,33,2,2,,,,,,,TrialProc,255950,Yes,2031,257981,3,1527,259533,4,1957,261501,computer,3087,264604,TrialList,Programming is a cherished art. ,,33,1,2
Tweet_Rating_English_Right,111,1,1,31-45,"<?xml version=""1.0""?>\n<Clock xmlns:dt=""urn:schemas-microsoft-com:datatypes""><Description dt:dt=""string"">E-Prime Primary Realtime Clock</Description><StartTime><Timestamp dt:dt=""int"">0</Timestamp><DateUtc dt:dt=""string"">2015-05-26T09:04:17Z</DateUtc></StartTime><FrequencyChanges><FrequencyChange><Frequency dt:dt=""r8"">3312890</Frequency><Timestamp dt:dt=""r8"">15121508198</Timestamp><Current dt:dt=""r8"">0</Current><DateUtc dt:dt=""string"">2015-05-26T09:04:17Z</DateUtc></FrequencyChange></FrequencyChanges></Clock>\n",Tweet_Rating_English_Right-41-1,59.821,1.0.0.325,English,1,Postgraduate student,-2057731985,Professional,2.0.10.353,2.0.10.353,05-26-2015,26/05/2015 09:04,10:04:17,male,2.0.10.248,4,4,1,4,BlockProc,BlockList,3,1,,1,1,2,c,48,1,3,,,,,,,TrialProc,269657,Yes,2627,272284,1,3401,275700,2,1998,277724,computer,1640,279388,TrialList,Government is a warming light.,,48,1,3
Tweet_Rating_English_Right,111,1,1,31-45,"<?xml version=""1.0""?>\n<Clock xmlns:dt=""urn:schemas-microsoft-com:datatypes""><Description dt:dt=""string"">E-Prime Primary Realtime Clock</Description><StartTime><Timestamp dt:dt=""int"">0</Timestamp><DateUtc dt:dt=""string"">2015-05-26T09:04:17Z</DateUtc></StartTime><FrequencyChanges><FrequencyChange><Frequency dt:dt=""r8"">3312890</Frequency><Timestamp dt:dt=""r8"">15121508198</Timestamp><Current dt:dt=""r8"">0</Current><DateUtc dt:dt=""string"">2015-05-26T09:04:17Z</DateUtc></FrequencyChange></FrequencyChanges></Clock>\n",Tweet_Rating_English_Right-41-1,59.821,1.0.0.325,English,1,Postgraduate student,-2057731985,Professional,2.0.10.353,2.0.10.353,05-26-2015,26/05/2015 09:04,10:04:17,male,2.0.10.248,4,4,1,4,BlockProc,BlockList,4,1,,2,3,2,c,2,3,2,,,,,,,TrialProc,285354,Yes,2402,287756,2,3169,290947,4,1856,292827,human,2640,295483,TrialList,Religion is relaxing music.,,2,1,4
Tweet_Rating_English_Right,111,1,1,31-45,"<?xml version=""1.0""?>\n<Clock xmlns:dt=""urn:schemas-microsoft-com:datatypes""><Description dt:dt=""string"">E-Prime Primary Realtime Clock</Description><StartTime><Timestamp dt:dt=""int"">0</Timestamp><DateUtc dt:dt=""string"">2015-05-26T09:04:17Z</DateUtc></StartTime><FrequencyChanges><FrequencyChange><Frequency dt:dt=""r8"">3312890</Frequency><Timestamp dt:dt=""r8"">15121508198</Timestamp><Current dt:dt=""r8"">0</Current><DateUtc dt:dt=""string"">2015-05-26T09:04:17Z</DateUtc></FrequencyChange></FrequencyChanges></Clock>\n",Tweet_Rating_English_Right-41-1,59.821,1.0.0.325,English,1,Postgraduate student,-2057731985,Professional,2.0.10.353,2.0.10.353,05-26-2015,26/05/2015 09:04,10:04:17,male,2.0.10.248,4,4,1,4,BlockProc,BlockList,5,0,,1,2,2,h,51,1,1,,,,,,,TrialProc,300014,Yes,2309,302323,2,3161,305499,4,2969,308483,computer,3065,311571,TrialList,Wisdom is a distant foreigner.,,51,1,5
Tweet_Rating_English_Right,111,1,1,31-45,"<?xml version=""1.0""?>\n<Clock xmlns:dt=""urn:schemas-microsoft-com:datatypes""><Description dt:dt=""string"">E-Prime Primary Realtime Clock</Description><StartTime><Timestamp dt:dt=""int"">0</Timestamp><DateUtc dt:dt=""string"">2015-05-26T09:04:17Z</DateUtc></StartTime><FrequencyChanges><FrequencyChange><Frequency dt:dt=""r8"">3312890</Frequency><Timestamp dt:dt=""r8"">15121508198</Timestamp><Current dt:dt=""r8"">0</Current><DateUtc dt:dt=""string"">2015-05-26T09:04:17Z</DateUtc></FrequencyChange></FrequencyChanges></Clock>\n",Tweet_Rating_English_Right-41-1,59.821,1.0.0.325,English,1,Postgraduate student,-2057731985,Professional,2.0.10.353,2.0.10.353,05-26-2015,26/05/2015 09:04,10:04:17,male,2.0.10.248,4,4,1,4,BlockProc,BlockList,6,0,,1,2,2,c,46,1,1,,,,,,,TrialProc,316163,No,7199,323362,,0,0,2,3378,326762,computer,1569,328346,TrialList,Imagination is attractive beauty.,,46,1,6
Tweet_Rating_English_Right,111,1,1,31-45,"<?xml version=""1.0""?>\n<Clock xmlns:dt=""urn:schemas-microsoft-com:datatypes""><Description dt:dt=""string"">E-Prime Primary Realtime Clock</Description><StartTime><Timestamp dt:dt=""int"">0</Timestamp><DateUtc dt:dt=""string"">2015-05-26T09:04:17Z</DateUtc></StartTime><FrequencyChanges><FrequencyChange><Frequency dt:dt=""r8"">3312890</Frequency><Timestamp dt:dt=""r8"">15121508198</Timestamp><Current dt:dt=""r8"">0</Current><DateUtc dt:dt=""string"">2015-05-26T09:04:17Z</DateUtc></FrequencyChange></FrequencyChanges></Clock>\n",Tweet_Rating_English_Right-41-1,59.821,1.0.0.325,English,1,Postgraduate student,-2057731985,Professional,2.0.10.353,2.0.10.353,05-26-2015,26/05/2015 09:04,10:04:17,male,2.0.10.248,4,4,1,4,BlockProc,BlockList,7,0,,2,3,1,c,14,2,2,,,,,,,TrialProc,332845,No,5373,338218,,0,0,1,4501,342729,computer,1931,344673,TrialList,Language is gentle love.,,14,1,7
Tweet_Rating_English_Right,111,1,1,31-45,"<?xml version=""1.0""?>\n<Clock xmlns:dt=""urn:schemas-microsoft-com:datatypes""><Description dt:dt=""string"">E-Prime Primary Realtime Clock</Description><StartTime><Timestamp dt:dt=""int"">0</Timestamp><DateUtc dt:dt=""string"">2015-05-26T09:04:17Z</DateUtc></StartTime><FrequencyChanges><FrequencyChange><Frequency dt:dt=""r8"">3312890</Frequency><Timestamp dt:dt=""r8"">15121508198</Timestamp><Current dt:dt=""r8"">0</Current><DateUtc dt:dt=""string"">2015-05-26T09:04:17Z</DateUtc></FrequencyChange></FrequencyChanges></Clock>\n",Tweet_Rating_English_Right-41-1,59.821,1.0.0.325,English,1,Postgraduate student,-2057731985,Professional,2.0.10.353,2.0.10.353,05-26-2015,26/05/2015 09:04,10:04:17,male,2.0.10.248,4,4,1,4,BlockProc,BlockList,8,0,,1,2,2,c,11,1,1,,,,,,,TrialProc,350030,Yes,2115,352145,3,1343,353513,5,2045,355585,human,2116,357713,TrialList,Love is a comforting fire.,,11,1,8
Tweet_Rating_English_Right,111,1,1,31-45,"<?xml version=""1.0""?>\n<Clock xmlns:dt=""urn:schemas-microsoft-com:datatypes""><Description dt:dt=""string"">E-Prime Primary Realtime Clock</Description><StartTime><Timestamp dt:dt=""int"">0</Timestamp><DateUtc dt:dt=""string"">2015-05-26T09:04:17Z</DateUtc></StartTime><FrequencyChanges><FrequencyChange><Frequency dt:dt=""r8"">3312890</Frequency><Timestamp dt:dt=""r8"">15121508198</Timestamp><Current dt:dt=""r8"">0</Current><DateUtc dt:dt=""string"">2015-05-26T09:04:17Z</DateUtc></FrequencyChange></FrequencyChanges></Clock>\n",Tweet_Rating_English_Right-41-1,59.821,1.0.0.325,English,1,Postgraduate student,-2057731985,Professional,2.0.10.353,2.0.10.353,05-26-2015,26/05/2015 09:04,10:04:17,male,2.0.10.248,4,4,1,4,BlockProc,BlockList,9,0,,2,3,2,c,36,1,1,,,,,,,TrialProc,362484,Yes,2197,364681,3,2382,367089,4,1670,368784,computer,3905,372707,TrialList,Love is soothing music.,,36,1,9
Tweet_Rating_English_Right,111,1,1,31-45,"<?xml version=""1.0""?>\n<Clock xmlns:dt=""urn:schemas-microsoft-com:datatypes""><Description dt:dt=""string"">E-Prime Primary Realtime Clock</Description><StartTime><Timestamp dt:dt=""int"">0</Timestamp><DateUtc dt:dt=""string"">2015-05-26T09:04:17Z</DateUtc></StartTime><FrequencyChanges><FrequencyChange><Frequency dt:dt=""r8"">3312890</Frequency><Timestamp dt:dt=""r8"">15121508198</Timestamp><Current dt:dt=""r8"">0</Current><DateUtc dt:dt=""string"">2015-05-26T09:04:17Z</DateUtc></FrequencyChange></FrequencyChanges></Clock>\n",Tweet_Rating_English_Right-41-1,59.821,1.0.0.325,English,1,Postgraduate student,-2057731985,Professional,2.0.10.353,2.0.10.353,05-26-2015,26/05/2015 09:04,10:04:17,male,2.0.10.248,4,4,1,4,BlockProc,BlockList,10,0,,1,1,2,c,44,3,3,,,,,,,TrialProc,378882,No,6870,385752,,0,0,2,4646,390416,computer,1671,392104,TrialList,Resistance is a warming light.,,44,1,10
Tweet_Rating_English_Right,111,1,1,31-45,"<?xml version=""1.0""?>\n<Clock xmlns:dt=""urn:schemas-microsoft-com:datatypes""><Description dt:dt=""string"">E-Prime Primary Realtime Clock</Description><StartTime><Timestamp dt:dt=""int"">0</Timestamp><DateUtc dt:dt=""string"">2015-05-26T09:04:17Z</DateUtc></StartTime><FrequencyChanges><FrequencyChange><Frequency dt:dt=""r8"">3312890</Frequency><Timestamp dt:dt=""r8"">15121508198</Timestamp><Current dt:dt=""r8"">0</Current><DateUtc dt:dt=""string"">2015-05-26T09:04:17Z</DateUtc></FrequencyChange></FrequencyChanges></Clock>\n",Tweet_Rating_English_Right-41-1,59.821,1.0.0.325,English,1,Postgraduate student,-2057731985,Professional,2.0.10.353,2.0.10.353,05-26-2015,26/05/2015 09:04,10:04:17,male,2.0.10.248,4,4,1,4,BlockProc,BlockList,11,0,,2,1,2,c,26,3,3,,,,,,,TrialProc,397688,Yes,5287,402975,2,1556,404543,3,4032,408591,computer,3443,412047,TrialList,Business is a tasty wine. ,,26,1,11
Tweet_Rating_English_Right,111,1,1,31-45,"<?xml version=""1.0""?>\n<Clock xmlns:dt=""urn:schemas-microsoft-com:datatypes""><Description dt:dt=""string"">E-Prime Primary Realtime Clock</Description><StartTime><Timestamp dt:dt=""int"">0</Timestamp><DateUtc dt:dt=""string"">2015-05-26T09:04:17Z</DateUtc></StartTime><FrequencyChanges><FrequencyChange><Frequency dt:dt=""r8"">3312890</Frequency><Timestamp dt:dt=""r8"">15121508198</Timestamp><Current dt:dt=""r8"">0</Current><DateUtc dt:dt=""string"">2015-05-26T09:04:17Z</DateUtc></FrequencyChange></FrequencyChanges></Clock>\n",Tweet_Rating_English_Right-41-1,59.821,1.0.0.325,English,1,Postgraduate student,-2057731985,Professional,2.0.10.353,2.0.10.353,05-26-2015,26/05/2015 09:04,10:04:17,male,2.0.10.248,4,4,1,4,BlockProc,BlockList,12,0,,1,2,2,c,16,2,2,,,,,,,TrialProc,416678,Yes,2185,418863,2,2633,421518,4,2039,423582,computer,2383,425982,TrialList,Power is a warming light.,,16,1,12
Tweet_Rating_English_Right,111,1,1,31-45,"<?xml version=""1.0""?>\n<Clock xmlns:dt=""urn:schemas-microsoft-com:datatypes""><Description dt:dt=""string"">E-Prime Primary Realtime Clock</Description><StartTime><Timestamp dt:dt=""int"">0</Timestamp><DateUtc dt:dt=""string"">2015-05-26T09:04:17Z</DateUtc></StartTime><FrequencyChanges><FrequencyChange><Frequency dt:dt=""r8"">3312890</Frequency><Timestamp dt:dt=""r8"">15121508198</Timestamp><Current dt:dt=""r8"">0</Current><DateUtc dt:dt=""string"">2015-05-26T09:04:17Z</DateUtc></FrequencyChange></FrequencyChanges></Clock>\n",Tweet_Rating_English_Right-41-1,59.821,1.0.0.325,English,1,Postgraduate student,-2057731985,Professional,2.0.10.353,2.0.10.353,05-26-2015,26/05/2015 09:04,10:04:17,male,2.0.10.248,4,4,1,4,BlockProc,BlockList,13,0,,1,2,3,h,56,2,2,,,,,,,TrialProc,430904,Yes,5006,435910,1,2998,438934,4,3198,442142,human,2420,444574,TrialList,Discipline is a strong fertilizer.,,56,1,13
Tweet_Rating_English_Right,111,1,1,31-45,"<?xml version=""1.0""?>\n<Clock xmlns:dt=""urn:schemas-microsoft-com:datatypes""><Description dt:dt=""string"">E-Prime Primary Realtime Clock</Description><StartTime><Timestamp dt:dt=""int"">0</Timestamp><DateUtc dt:dt=""string"">2015-05-26T09:04:17Z</DateUtc></StartTime><FrequencyChanges><FrequencyChange><Frequency dt:dt=""r8"">3312890</Frequency><Timestamp dt:dt=""r8"">15121508198</Timestamp><Current dt:dt=""r8"">0</Current><DateUtc dt:dt=""string"">2015-05-26T09:04:17Z</DateUtc></FrequencyChange></FrequencyChanges></Clock>\n",Tweet_Rating_English_Right-41-1,59.821,1.0.0.325,English,1,Postgraduate student,-2057731985,Professional,2.0.10.353,2.0.10.353,05-26-2015,26/05/2015 09:04,10:04:17,male,2.0.10.248,4,4,1,4,BlockProc,BlockList,14,0,,2,1,2,c,27,1,1,,,,,,,TrialProc,449208,Yes,3709,452917,2,2629,455565,3,5020,460597,computer,2652,463261,TrialList,Art is beautiful love. ,,27,1,14
Tweet_Rating_English_Right,111,1,1,31-45,"<?xml version=""1.0""?>\n<Clock xmlns:dt=""urn:schemas-microsoft-com:datatypes""><Description dt:dt=""string"">E-Prime Primary Realtime Clock</Description><StartTime><Timestamp dt:dt=""int"">0</Timestamp><DateUtc dt:dt=""string"">2015-05-26T09:04:17Z</DateUtc></StartTime><FrequencyChanges><FrequencyChange><Frequency dt:dt=""r8"">3312890</Frequency><Timestamp dt:dt=""r8"">15121508198</Timestamp><Current dt:dt=""r8"">0</Current><DateUtc dt:dt=""string"">2015-05-26T09:04:17Z</DateUtc></FrequencyChange></FrequencyChanges></Clock>\n",Tweet_Rating_English_Right-41-1,59.821,1.0.0.325,English,1,Postgraduate student,-2057731985,Professional,2.0.10.353,2.0.10.353,05-26-2015,26/05/2015 09:04,10:04:17,male,2.0.10.248,4,4,1,4,BlockProc,BlockList,15,1,,2,1,2,c,49,3,1,,,,,,,TrialProc,468081,No,3988,472069,,0,0,1,3239,475332,computer,1347,476700,TrialList,Blood is an appealing wine. ,,49,1,15
Tweet_Rating_English_Right,111,1,1,31-45,"<?xml version=""1.0""?>\n<Clock xmlns:dt=""urn:schemas-microsoft-com:datatypes""><Description dt:dt=""string"">E-Prime Primary Realtime Clock</Description><StartTime><Timestamp dt:dt=""int"">0</Timestamp><DateUtc dt:dt=""string"">2015-05-26T09:04:17Z</DateUtc></StartTime><FrequencyChanges><FrequencyChange><Frequency dt:dt=""r8"">3312890</Frequency><Timestamp dt:dt=""r8"">15121508198</Timestamp><Current dt:dt=""r8"">0</Current><DateUtc dt:dt=""string"">2015-05-26T09:04:17Z</DateUtc></FrequencyChange></FrequencyChanges></Clock>\n",Tweet_Rating_English_Right-41-1,59.821,1.0.0.325,English,1,Postgraduate student,-2057731985,Professional,2.0.10.353,2.0.10.353,05-26-2015,26/05/2015 09:04,10:04:17,male,2.0.10.248,4,4,1,4,BlockProc,BlockList,16,1,,2,3,2,c,23,3,2,,,,,,,TrialProc,481555,Yes,1993,483548,3,2395,485956,5,2300,488268,human,2873,491164,TrialList,Truth is soothing music.,,23,1,16
Tweet_Rating_English_Right,111,1,1,31-45,"<?xml version=""1.0""?>\n<Clock xmlns:dt=""urn:schemas-microsoft-com:datatypes""><Description dt:dt=""string"">E-Prime Primary Realtime Clock</Description><StartTime><Timestamp dt:dt=""int"">0</Timestamp><DateUtc dt:dt=""string"">2015-05-26T09:04:17Z</DateUtc></StartTime><FrequencyChanges><FrequencyChange><Frequency dt:dt=""r8"">3312890</Frequency><Timestamp dt:dt=""r8"">15121508198</Timestamp><Current dt:dt=""r8"">0</Current><DateUtc dt:dt=""string"">2015-05-26T09:04:17Z</DateUtc></FrequencyChange></FrequencyChanges></Clock>\n",Tweet_Rating_English_Right-41-1,59.821,1.0.0.325,English,1,Postgraduate student,-2057731985,Professional,2.0.10.353,2.0.10.353,05-26-2015,26/05/2015 09:04,10:04:17,male,2.0.10.248,4,4,1,4,BlockProc,BlockList,17,1,,2,2,2,c,34,2,1,,,,,,,TrialProc,495830,Yes,3277,499107,3,1423,500547,5,2722,503283,computer,1636,504939,TrialList,Destiny is a lovely heaven. ,,34,1,17
Tweet_Rating_English_Right,111,1,1,31-45,"<?xml version=""1.0""?>\n<Clock xmlns:dt=""urn:schemas-microsoft-com:datatypes""><Description dt:dt=""string"">E-Prime Primary Realtime Clock</Description><StartTime><Timestamp dt:dt=""int"">0</Timestamp><DateUtc dt:dt=""string"">2015-05-26T09:04:17Z</DateUtc></StartTime><FrequencyChanges><FrequencyChange><Frequency dt:dt=""r8"">3312890</Frequency><Timestamp dt:dt=""r8"">15121508198</Timestamp><Current dt:dt=""r8"">0</Current><DateUtc dt:dt=""string"">2015-05-26T09:04:17Z</DateUtc></FrequencyChange></FrequencyChanges></Clock>\n",Tweet_Rating_English_Right-41-1,59.821,1.0.0.325,English,1,Postgraduate student,-2057731985,Professional,2.0.10.353,2.0.10.353,05-26-2015,26/05/2015 09:04,10:04:17,male,2.0.10.248,4,4,1,4,BlockProc,BlockList,18,0,,1,1,2,c,10,2,2,,,,,,,TrialProc,509187,Yes,2440,511627,3,1543,513187,4,1836,515051,computer,2804,517875,TrialList,Security is a warming light.,,10,1,18
Tweet_Rating_English_Right,111,1,1,31-45,"<?xml version=""1.0""?>\n<Clock xmlns:dt=""urn:schemas-microsoft-com:datatypes""><Description dt:dt=""string"">E-Prime Primary Realtime Clock</Description><StartTime><Timestamp dt:dt=""int"">0</Timestamp><DateUtc dt:dt=""string"">2015-05-26T09:04:17Z</DateUtc></StartTime><FrequencyChanges><FrequencyChange><Frequency dt:dt=""r8"">3312890</Frequency><Timestamp dt:dt=""r8"">15121508198</Timestamp><Current dt:dt=""r8"">0</Current><DateUtc dt:dt=""string"">2015-05-26T09:04:17Z</DateUtc></FrequencyChange></FrequencyChanges></Clock>\n",Tweet_Rating_English_Right-41-1,59.821,1.0.0.325,English,1,Postgraduate student,-2057731985,Professional,2.0.10.353,2.0.10.353,05-26-2015,26/05/2015 09:04,10:04:17,male,2.0.10.248,4,4,1,4,BlockProc,BlockList,19,0,,2,3,1,c,29,3,3,,,,,,,TrialProc,522543,No,3587,526130,,0,0,1,3160,529314,computer,1768,531098,TrialList,Business is relaxing music.,,29,1,19
Tweet_Rating_English_Right,111,1,1,31-45,"<?xml version=""1.0""?>\n<Clock xmlns:dt=""urn:schemas-microsoft-com:datatypes""><Description dt:dt=""string"">E-Prime Primary Realtime Clock</Description><StartTime><Timestamp dt:dt=""int"">0</Timestamp><DateUtc dt:dt=""string"">2015-05-26T09:04:17Z</DateUtc></StartTime><FrequencyChanges><FrequencyChange><Frequency dt:dt=""r8"">3312890</Frequency><Timestamp dt:dt=""r8"">15121508198</Timestamp><Current dt:dt=""r8"">0</Current><DateUtc dt:dt=""string"">2015-05-26T09:04:17Z</DateUtc></FrequencyChange></FrequencyChanges></Clock>\n",Tweet_Rating_English_Right-41-1,59.821,1.0.0.325,English,1,Postgraduate student,-2057731985,Professional,2.0.10.353,2.0.10.353,05-26-2015,26/05/2015 09:04,10:04:17,male,2.0.10.248,4,4,1,4,BlockProc,BlockList,20,0,,1,1,2,c,32,2,2,,,,,,,TrialProc,535565,No,3989,539554,,0,0,2,3913,543490,computer,1488,544994,TrialList,Technology is a warming light. ,,32,1,20
Tweet_Rating_English_Right,111,1,1,31-45,"<?xml version=""1.0""?>\n<Clock xmlns:dt=""urn:schemas-microsoft-com:datatypes""><Description dt:dt=""string"">E-Prime Primary Realtime Clock</Description><StartTime><Timestamp dt:dt=""int"">0</Timestamp><DateUtc dt:dt=""string"">2015-05-26T09:04:17Z</DateUtc></StartTime><FrequencyChanges><FrequencyChange><Frequency dt:dt=""r8"">3312890</Frequency><Timestamp dt:dt=""r8"">15121508198</Timestamp><Current dt:dt=""r8"">0</Current><DateUtc dt:dt=""string"">2015-05-26T09:04:17Z</DateUtc></FrequencyChange></FrequencyChanges></Clock>\n",Tweet_Rating_English_Right-41-1,59.821,1.0.0.325,English,1,Postgraduate student,-2057731985,Professional,2.0.10.353,2.0.10.353,05-26-2015,26/05/2015 09:04,10:04:17,male,2.0.10.248,4,4,1,4,BlockProc,BlockList,21,0,,1,3,2,c,3,3,3,,,,,,,TrialProc,549691,No,2926,552617,,0,0,3,3768,556401,computer,1398,557825,TrialList,Business is pure water.,,3,1,21
Tweet_Rating_English_Right,111,1,1,31-45,"<?xml version=""1.0""?>\n<Clock xmlns:dt=""urn:schemas-microsoft-com:datatypes""><Description dt:dt=""string"">E-Prime Primary Realtime Clock</Description><StartTime><Timestamp dt:dt=""int"">0</Timestamp><DateUtc dt:dt=""string"">2015-05-26T09:04:17Z</DateUtc></StartTime><FrequencyChanges><FrequencyChange><Frequency dt:dt=""r8"">3312890</Frequency><Timestamp dt:dt=""r8"">15121508198</Timestamp><Current dt:dt=""r8"">0</Current><DateUtc dt:dt=""string"">2015-05-26T09:04:17Z</DateUtc></FrequencyChange></FrequencyChanges></Clock>\n",Tweet_Rating_English_Right-41-1,59.821,1.0.0.325,English,1,Postgraduate student,-2057731985,Professional,2.0.10.353,2.0.10.353,05-26-2015,26/05/2015 09:04,10:04:17,male,2.0.10.248,4,4,1,4,BlockProc,BlockList,22,0,,1,1,2,c,47,1,1,,,,,,,TrialProc,563231,Yes,2802,566033,3,2105,568161,5,1678,569857,human,2822,572689,TrialList,Learning is a rewarding investment. ,,47,1,22
Tweet_Rating_English_Right,111,1,1,31-45,"<?xml version=""1.0""?>\n<Clock xmlns:dt=""urn:schemas-microsoft-com:datatypes""><Description dt:dt=""string"">E-Prime Primary Realtime Clock</Description><StartTime><Timestamp dt:dt=""int"">0</Timestamp><DateUtc dt:dt=""string"">2015-05-26T09:04:17Z</DateUtc></StartTime><FrequencyChanges><FrequencyChange><Frequency dt:dt=""r8"">3312890</Frequency><Timestamp dt:dt=""r8"">15121508198</Timestamp><Current dt:dt=""r8"">0</Current><DateUtc dt:dt=""string"">2015-05-26T09:04:17Z</DateUtc></FrequencyChange></FrequencyChanges></Clock>\n",Tweet_Rating_English_Right-41-1,59.821,1.0.0.325,English,1,Postgraduate student,-2057731985,Professional,2.0.10.353,2.0.10.353,05-26-2015,26/05/2015 09:04,10:04:17,male,2.0.10.248,4,4,1,4,BlockProc,BlockList,23,1,,2,2,2,h,55,3,2,,,,,,,TrialProc,577239,Yes,5569,582808,1,2345,585168,4,3612,588792,human,5305,594112,TrialList,Sleep is a vast ocean.,,55,1,23
Tweet_Rating_English_Right,111,1,1,31-45,"<?xml version=""1.0""?>\n<Clock xmlns:dt=""urn:schemas-microsoft-com:datatypes""><Description dt:dt=""string"">E-Prime Primary Realtime Clock</Description><StartTime><Timestamp dt:dt=""int"">0</Timestamp><DateUtc dt:dt=""string"">2015-05-26T09:04:17Z</DateUtc></StartTime><FrequencyChanges><FrequencyChange><Frequency dt:dt=""r8"">3312890</Frequency><Timestamp dt:dt=""r8"">15121508198</Timestamp><Current dt:dt=""r8"">0</Current><DateUtc dt:dt=""string"">2015-05-26T09:04:17Z</DateUtc></FrequencyChange></FrequencyChanges></Clock>\n",Tweet_Rating_English_Right-41-1,59.821,1.0.0.325,English,1,Postgraduate student,-2057731985,Professional,2.0.10.353,2.0.10.353,05-26-2015,26/05/2015 09:04,10:04:17,male,2.0.10.248,4,4,1,4,BlockProc,BlockList,24,0,,1,1,2,c,30,2,2,,,,,,,TrialProc,598386,Yes,3022,601408,2,1660,603088,4,1499,604615,computer,2418,607055,TrialList,Music is a warming light.,,30,1,24
Tweet_Rating_English_Right,111,1,1,31-45,"<?xml version=""1.0""?>\n<Clock xmlns:dt=""urn:schemas-microsoft-com:datatypes""><Description dt:dt=""string"">E-Prime Primary Realtime Clock</Description><StartTime><Timestamp dt:dt=""int"">0</Timestamp><DateUtc dt:dt=""string"">2015-05-26T09:04:17Z</DateUtc></StartTime><FrequencyChanges><FrequencyChange><Frequency dt:dt=""r8"">3312890</Frequency><Timestamp dt:dt=""r8"">15121508198</Timestamp><Current dt:dt=""r8"">0</Current><DateUtc dt:dt=""string"">2015-05-26T09:04:17Z</DateUtc></FrequencyChange></FrequencyChanges></Clock>\n",Tweet_Rating_English_Right-41-1,59.821,1.0.0.325,English,1,Postgraduate student,-2057731985,Professional,2.0.10.353,2.0.10.353,05-26-2015,26/05/2015 09:04,10:04:17,male,2.0.10.248,4,4,1,4,BlockProc,BlockList,25,0,,2,2,3,c,13,2,2,,,,,,,TrialProc,611324,Yes,2107,613431,1,2888,616335,4,3915,620271,computer,6187,626471,TrialList,Life is an appealing wine.,,13,1,25
Tweet_Rating_English_Right,111,1,1,31-45,"<?xml version=""1.0""?>\n<Clock xmlns:dt=""urn:schemas-microsoft-com:datatypes""><Description dt:dt=""string"">E-Prime Primary Realtime Clock</Description><StartTime><Timestamp dt:dt=""int"">0</Timestamp><DateUtc dt:dt=""string"">2015-05-26T09:04:17Z</DateUtc></StartTime><FrequencyChanges><FrequencyChange><Frequency dt:dt=""r8"">3312890</Frequency><Timestamp dt:dt=""r8"">15121508198</Timestamp><Current dt:dt=""r8"">0</Current><DateUtc dt:dt=""string"">2015-05-26T09:04:17Z</DateUtc></FrequencyChange></FrequencyChanges></Clock>\n",Tweet_Rating_English_Right-41-1,59.821,1.0.0.325,English,1,Postgraduate student,-2057731985,Professional,2.0.10.353,2.0.10.353,05-26-2015,26/05/2015 09:04,10:04:17,male,2.0.10.248,4,4,1,4,BlockProc,BlockList,26,0,,2,2,2,h,58,2,2,,,,,,,TrialProc,632153,Yes,2797,634950,2,2356,637334,5,1895,639246,human,2037,641294,TrialList,History is a cracked mirror.,,58,1,26
Tweet_Rating_English_Right,111,1,1,31-45,"<?xml version=""1.0""?>\n<Clock xmlns:dt=""urn:schemas-microsoft-com:datatypes""><Description dt:dt=""string"">E-Prime Primary Realtime Clock</Description><StartTime><Timestamp dt:dt=""int"">0</Timestamp><DateUtc dt:dt=""string"">2015-05-26T09:04:17Z</DateUtc></StartTime><FrequencyChanges><FrequencyChange><Frequency dt:dt=""r8"">3312890</Frequency><Timestamp dt:dt=""r8"">15121508198</Timestamp><Current dt:dt=""r8"">0</Current><DateUtc dt:dt=""string"">2015-05-26T09:04:17Z</DateUtc></FrequencyChange></FrequencyChanges></Clock>\n",Tweet_Rating_English_Right-41-1,59.821,1.0.0.325,English,1,Postgraduate student,-2057731985,Professional,2.0.10.353,2.0.10.353,05-26-2015,26/05/2015 09:04,10:04:17,male,2.0.10.248,4,4,1,4,BlockProc,BlockList,27,0,,1,1,2,c,43,3,3,,,,,,,TrialProc,646846,No,4392,651238,,0,0,1,1915,653174,computer,1735,654934,TrialList,Disease is a warming light.,,43,1,27
Tweet_Rating_English_Right,111,1,1,31-45,"<?xml version=""1.0""?>\n<Clock xmlns:dt=""urn:schemas-microsoft-com:datatypes""><Description dt:dt=""string"">E-Prime Primary Realtime Clock</Description><StartTime><Timestamp dt:dt=""int"">0</Timestamp><DateUtc dt:dt=""string"">2015-05-26T09:04:17Z</DateUtc></StartTime><FrequencyChanges><FrequencyChange><Frequency dt:dt=""r8"">3312890</Frequency><Timestamp dt:dt=""r8"">15121508198</Timestamp><Current dt:dt=""r8"">0</Current><DateUtc dt:dt=""string"">2015-05-26T09:04:17Z</DateUtc></FrequencyChange></FrequencyChanges></Clock>\n",Tweet_Rating_English_Right-41-1,59.821,1.0.0.325,English,1,Postgraduate student,-2057731985,Professional,2.0.10.353,2.0.10.353,05-26-2015,26/05/2015 09:04,10:04:17,male,2.0.10.248,4,4,1,4,BlockProc,BlockList,28,0,,2,2,2,c,25,2,2,,,,,,,TrialProc,660019,No,5994,666013,,0,0,2,3408,669445,computer,1677,671141,TrialList,Food is enjoyable music.,,25,1,28
Tweet_Rating_English_Right,111,1,1,31-45,"<?xml version=""1.0""?>\n<Clock xmlns:dt=""urn:schemas-microsoft-com:datatypes""><Description dt:dt=""string"">E-Prime Primary Realtime Clock</Description><StartTime><Timestamp dt:dt=""int"">0</Timestamp><DateUtc dt:dt=""string"">2015-05-26T09:04:17Z</DateUtc></StartTime><FrequencyChanges><FrequencyChange><Frequency dt:dt=""r8"">3312890</Frequency><Timestamp dt:dt=""r8"">15121508198</Timestamp><Current dt:dt=""r8"">0</Current><DateUtc dt:dt=""string"">2015-05-26T09:04:17Z</DateUtc></FrequencyChange></FrequencyChanges></Clock>\n",Tweet_Rating_English_Right-41-1,59.821,1.0.0.325,English,1,Postgraduate student,-2057731985,Professional,2.0.10.353,2.0.10.353,05-26-2015,26/05/2015 09:04,10:04:17,male,2.0.10.248,4,4,1,4,BlockProc,BlockList,29,1,,1,2,1,h,53,3,2,,,,,,,TrialProc,675883,Yes,2162,678045,3,2565,680621,5,3133,683780,human,2126,685932,TrialList,Evolution is an ongoing lottery.,,53,1,29
Tweet_Rating_English_Right,111,1,1,31-45,"<?xml version=""1.0""?>\n<Clock xmlns:dt=""urn:schemas-microsoft-com:datatypes""><Description dt:dt=""string"">E-Prime Primary Realtime Clock</Description><StartTime><Timestamp dt:dt=""int"">0</Timestamp><DateUtc dt:dt=""string"">2015-05-26T09:04:17Z</DateUtc></StartTime><FrequencyChanges><FrequencyChange><Frequency dt:dt=""r8"">3312890</Frequency><Timestamp dt:dt=""r8"">15121508198</Timestamp><Current dt:dt=""r8"">0</Current><DateUtc dt:dt=""string"">2015-05-26T09:04:17Z</DateUtc></FrequencyChange></FrequencyChanges></Clock>\n",Tweet_Rating_English_Right-41-1,59.821,1.0.0.325,English,1,Postgraduate student,-2057731985,Professional,2.0.10.353,2.0.10.353,05-26-2015,26/05/2015 09:04,10:04:17,male,2.0.10.248,4,4,1,4,BlockProc,BlockList,30,0,,2,1,1,c,12,1,1,,,,,,,TrialProc,690025,Yes,1907,691932,3,2481,694428,4,1453,695908,human,2910,698836,TrialList,Life is an enjoyable comedy.,,12,1,30
Tweet_Rating_English_Right,111,1,1,31-45,"<?xml version=""1.0""?>\n<Clock xmlns:dt=""urn:schemas-microsoft-com:datatypes""><Description dt:dt=""string"">E-Prime Primary Realtime Clock</Description><StartTime><Timestamp dt:dt=""int"">0</Timestamp><DateUtc dt:dt=""string"">2015-05-26T09:04:17Z</DateUtc></StartTime><FrequencyChanges><FrequencyChange><Frequency dt:dt=""r8"">3312890</Frequency><Timestamp dt:dt=""r8"">15121508198</Timestamp><Current dt:dt=""r8"">0</Current><DateUtc dt:dt=""string"">2015-05-26T09:04:17Z</DateUtc></FrequencyChange></FrequencyChanges></Clock>\n",Tweet_Rating_English_Right-41-1,59.821,1.0.0.325,English,1,Postgraduate student,-2057731985,Professional,2.0.10.353,2.0.10.353,05-26-2015,26/05/2015 09:04,10:04:17,male,2.0.10.248,4,4,1,4,BlockProc,BlockList,31,1,,1,2,2,c,9,3,2,,,,,,,TrialProc,703348,Yes,1856,705204,2,2672,707892,3,3300,711211,computer,2813,714051,TrialList,Power is a comforting fire.,,9,1,31
Tweet_Rating_English_Right,111,1,1,31-45,"<?xml version=""1.0""?>\n<Clock xmlns:dt=""urn:schemas-microsoft-com:datatypes""><Description dt:dt=""string"">E-Prime Primary Realtime Clock</Description><StartTime><Timestamp dt:dt=""int"">0</Timestamp><DateUtc dt:dt=""string"">2015-05-26T09:04:17Z</DateUtc></StartTime><FrequencyChanges><FrequencyChange><Frequency dt:dt=""r8"">3312890</Frequency><Timestamp dt:dt=""r8"">15121508198</Timestamp><Current dt:dt=""r8"">0</Current><DateUtc dt:dt=""string"">2015-05-26T09:04:17Z</DateUtc></FrequencyChange></FrequencyChanges></Clock>\n",Tweet_Rating_English_Right-41-1,59.821,1.0.0.325,English,1,Postgraduate student,-2057731985,Professional,2.0.10.353,2.0.10.353,05-26-2015,26/05/2015 09:04,10:04:17,male,2.0.10.248,4,4,1,4,BlockProc,BlockList,32,1,,1,3,2,c,40,3,2,,,,,,,TrialProc,719529,No,4106,723635,,0,0,1,2705,726363,computer,1788,728171,TrialList,Pain is an appealing beauty.,,40,1,32
Tweet_Rating_English_Right,111,1,1,31-45,"<?xml version=""1.0""?>\n<Clock xmlns:dt=""urn:schemas-microsoft-com:datatypes""><Description dt:dt=""string"">E-Prime Primary Realtime Clock</Description><StartTime><Timestamp dt:dt=""int"">0</Timestamp><DateUtc dt:dt=""string"">2015-05-26T09:04:17Z</DateUtc></StartTime><FrequencyChanges><FrequencyChange><Frequency dt:dt=""r8"">3312890</Frequency><Timestamp dt:dt=""r8"">15121508198</Timestamp><Current dt:dt=""r8"">0</Current><DateUtc dt:dt=""string"">2015-05-26T09:04:17Z</DateUtc></FrequencyChange></FrequencyChanges></Clock>\n",Tweet_Rating_English_Right-41-1,59.821,1.0.0.325,English,1,Postgraduate student,-2057731985,Professional,2.0.10.353,2.0.10.353,05-26-2015,26/05/2015 09:04,10:04:17,male,2.0.10.248,4,4,1,4,BlockProc,BlockList,33,0,,2,2,2,c,22,2,2,,,,,,,TrialProc,732367,Yes,6747,739114,1,1288,740426,3,3089,743530,computer,2707,746258,TrialList,Medicine is tender love.,,22,1,33
Tweet_Rating_English_Right,111,1,1,31-45,"<?xml version=""1.0""?>\n<Clock xmlns:dt=""urn:schemas-microsoft-com:datatypes""><Description dt:dt=""string"">E-Prime Primary Realtime Clock</Description><StartTime><Timestamp dt:dt=""int"">0</Timestamp><DateUtc dt:dt=""string"">2015-05-26T09:04:17Z</DateUtc></StartTime><FrequencyChanges><FrequencyChange><Frequency dt:dt=""r8"">3312890</Frequency><Timestamp dt:dt=""r8"">15121508198</Timestamp><Current dt:dt=""r8"">0</Current><DateUtc dt:dt=""string"">2015-05-26T09:04:17Z</DateUtc></FrequencyChange></FrequencyChanges></Clock>\n",Tweet_Rating_English_Right-41-1,59.821,1.0.0.325,English,1,Postgraduate student,-2057731985,Professional,2.0.10.353,2.0.10.353,05-26-2015,26/05/2015 09:04,10:04:17,male,2.0.10.248,4,4,1,4,BlockProc,BlockList,34,0,,2,3,3,c,24,1,1,,,,,,,TrialProc,751240,Yes,3202,754442,2,1959,756426,4,3739,760178,computer,3473,763673,TrialList,Marriage is a hot hell.,,24,1,34
Tweet_Rating_English_Right,111,1,1,31-45,"<?xml version=""1.0""?>\n<Clock xmlns:dt=""urn:schemas-microsoft-com:datatypes""><Description dt:dt=""string"">E-Prime Primary Realtime Clock</Description><StartTime><Timestamp dt:dt=""int"">0</Timestamp><DateUtc dt:dt=""string"">2015-05-26T09:04:17Z</DateUtc></StartTime><FrequencyChanges><FrequencyChange><Frequency dt:dt=""r8"">3312890</Frequency><Timestamp dt:dt=""r8"">15121508198</Timestamp><Current dt:dt=""r8"">0</Current><DateUtc dt:dt=""string"">2015-05-26T09:04:17Z</DateUtc></FrequencyChange></FrequencyChanges></Clock>\n",Tweet_Rating_English_Right-41-1,59.821,1.0.0.325,English,1,Postgraduate student,-2057731985,Professional,2.0.10.353,2.0.10.353,05-26-2015,26/05/2015 09:04,10:04:17,male,2.0.10.248,4,4,1,4,BlockProc,BlockList,35,0,,1,3,2,h,57,2,2,,,,,,,TrialProc,768910,Yes,3395,772305,1,2449,774769,3,4103,778897,computer,3454,782377,TrialList,Indecision is a calm whirlpool.,,57,1,35
Tweet_Rating_English_Right,111,1,1,31-45,"<?xml version=""1.0""?>\n<Clock xmlns:dt=""urn:schemas-microsoft-com:datatypes""><Description dt:dt=""string"">E-Prime Primary Realtime Clock</Description><StartTime><Timestamp dt:dt=""int"">0</Timestamp><DateUtc dt:dt=""string"">2015-05-26T09:04:17Z</DateUtc></StartTime><FrequencyChanges><FrequencyChange><Frequency dt:dt=""r8"">3312890</Frequency><Timestamp dt:dt=""r8"">15121508198</Timestamp><Current dt:dt=""r8"">0</Current><DateUtc dt:dt=""string"">2015-05-26T09:04:17Z</DateUtc></FrequencyChange></FrequencyChanges></Clock>\n",Tweet_Rating_English_Right-41-1,59.821,1.0.0.325,English,1,Postgraduate student,-2057731985,Professional,2.0.10.353,2.0.10.353,05-26-2015,26/05/2015 09:04,10:04:17,male,2.0.10.248,4,4,1,4,BlockProc,BlockList,36,0,,2,3,1,c,39,3,3,,,,,,,TrialProc,786696,No,8424,795120,,0,0,4,6662,801800,computer,1440,803264,TrialList,Government is a charming painting.,,39,1,36
Tweet_Rating_English_Right,111,1,1,31-45,"<?xml version=""1.0""?>\n<Clock xmlns:dt=""urn:schemas-microsoft-com:datatypes""><Description dt:dt=""string"">E-Prime Primary Realtime Clock</Description><StartTime><Timestamp dt:dt=""int"">0</Timestamp><DateUtc dt:dt=""string"">2015-05-26T09:04:17Z</DateUtc></StartTime><FrequencyChanges><FrequencyChange><Frequency dt:dt=""r8"">3312890</Frequency><Timestamp dt:dt=""r8"">15121508198</Timestamp><Current dt:dt=""r8"">0</Current><DateUtc dt:dt=""string"">2015-05-26T09:04:17Z</DateUtc></FrequencyChange></FrequencyChanges></Clock>\n",Tweet_Rating_English_Right-41-1,59.821,1.0.0.325,English,1,Postgraduate student,-2057731985,Professional,2.0.10.353,2.0.10.353,05-26-2015,26/05/2015 09:04,10:04:17,male,2.0.10.248,4,4,1,4,BlockProc,BlockList,37,0,,2,2,2,h,60,1,1,,,,,,,TrialProc,807842,Yes,1926,809768,3,1203,810984,4,3286,814287,human,2048,816359,TrialList,Education is a glowing lantern.,,60,1,37
Tweet_Rating_English_Right,111,1,1,31-45,"<?xml version=""1.0""?>\n<Clock xmlns:dt=""urn:schemas-microsoft-com:datatypes""><Description dt:dt=""string"">E-Prime Primary Realtime Clock</Description><StartTime><Timestamp dt:dt=""int"">0</Timestamp><DateUtc dt:dt=""string"">2015-05-26T09:04:17Z</DateUtc></StartTime><FrequencyChanges><FrequencyChange><Frequency dt:dt=""r8"">3312890</Frequency><Timestamp dt:dt=""r8"">15121508198</Timestamp><Current dt:dt=""r8"">0</Current><DateUtc dt:dt=""string"">2015-05-26T09:04:17Z</DateUtc></FrequencyChange></FrequencyChanges></Clock>\n",Tweet_Rating_English_Right-41-1,59.821,1.0.0.325,English,1,Postgraduate student,-2057731985,Professional,2.0.10.353,2.0.10.353,05-26-2015,26/05/2015 09:04,10:04:17,male,2.0.10.248,4,4,1,4,BlockProc,BlockList,38,0,,1,2,3,c,31,2,2,,,,,,,TrialProc,820814,Yes,2881,823695,2,2572,826295,2,2885,829199,computer,1961,831183,TrialList,Song is a comforting fire.,,31,1,38
Tweet_Rating_English_Right,111,1,1,31-45,"<?xml version=""1.0""?>\n<Clock xmlns:dt=""urn:schemas-microsoft-com:datatypes""><Description dt:dt=""string"">E-Prime Primary Realtime Clock</Description><StartTime><Timestamp dt:dt=""int"">0</Timestamp><DateUtc dt:dt=""string"">2015-05-26T09:04:17Z</DateUtc></StartTime><FrequencyChanges><FrequencyChange><Frequency dt:dt=""r8"">3312890</Frequency><Timestamp dt:dt=""r8"">15121508198</Timestamp><Current dt:dt=""r8"">0</Current><DateUtc dt:dt=""string"">2015-05-26T09:04:17Z</DateUtc></FrequencyChange></FrequencyChanges></Clock>\n",Tweet_Rating_English_Right-41-1,59.821,1.0.0.325,English,1,Postgraduate student,-2057731985,Professional,2.0.10.353,2.0.10.353,05-26-2015,26/05/2015 09:04,10:04:17,male,2.0.10.248,4,4,1,4,BlockProc,BlockList,39,0,,2,2,3,c,42,2,2,,,,,,,TrialProc,836444,Yes,3363,839807,1,1346,841166,3,5511,846702,computer,2434,849158,TrialList,Writing is soothing healing.,,42,1,39
Tweet_Rating_English_Right,111,1,1,31-45,"<?xml version=""1.0""?>\n<Clock xmlns:dt=""urn:schemas-microsoft-com:datatypes""><Description dt:dt=""string"">E-Prime Primary Realtime Clock</Description><StartTime><Timestamp dt:dt=""int"">0</Timestamp><DateUtc dt:dt=""string"">2015-05-26T09:04:17Z</DateUtc></StartTime><FrequencyChanges><FrequencyChange><Frequency dt:dt=""r8"">3312890</Frequency><Timestamp dt:dt=""r8"">15121508198</Timestamp><Current dt:dt=""r8"">0</Current><DateUtc dt:dt=""string"">2015-05-26T09:04:17Z</DateUtc></FrequencyChange></FrequencyChanges></Clock>\n",Tweet_Rating_English_Right-41-1,59.821,1.0.0.325,English,1,Postgraduate student,-2057731985,Professional,2.0.10.353,2.0.10.353,05-26-2015,26/05/2015 09:04,10:04:17,male,2.0.10.248,4,4,1,4,BlockProc,BlockList,40,0,,2,1,1,c,8,3,3,,,,,,,TrialProc,853862,No,7280,861142,,0,0,2,3135,864302,computer,1991,866318,TrialList,War is tender love.,,8,1,40
Tweet_Rating_English_Right,111,1,1,31-45,"<?xml version=""1.0""?>\n<Clock xmlns:dt=""urn:schemas-microsoft-com:datatypes""><Description dt:dt=""string"">E-Prime Primary Realtime Clock</Description><StartTime><Timestamp dt:dt=""int"">0</Timestamp><DateUtc dt:dt=""string"">2015-05-26T09:04:17Z</DateUtc></StartTime><FrequencyChanges><FrequencyChange><Frequency dt:dt=""r8"">3312890</Frequency><Timestamp dt:dt=""r8"">15121508198</Timestamp><Current dt:dt=""r8"">0</Current><DateUtc dt:dt=""string"">2015-05-26T09:04:17Z</DateUtc></FrequencyChange></FrequencyChanges></Clock>\n",Tweet_Rating_English_Right-41-1,59.821,1.0.0.325,English,1,Postgraduate student,-2057731985,Professional,2.0.10.353,2.0.10.353,05-26-2015,26/05/2015 09:04,10:04:17,male,2.0.10.248,4,4,1,4,BlockProc,BlockList,41,0,,1,3,2,c,35,3,3,,,,,,,TrialProc,871214,Yes,6311,877525,1,1152,878701,2,3189,881909,computer,3524,885453,TrialList,Power is pure water. ,,35,1,41
Tweet_Rating_English_Right,111,1,1,31-45,"<?xml version=""1.0""?>\n<Clock xmlns:dt=""urn:schemas-microsoft-com:datatypes""><Description dt:dt=""string"">E-Prime Primary Realtime Clock</Description><StartTime><Timestamp dt:dt=""int"">0</Timestamp><DateUtc dt:dt=""string"">2015-05-26T09:04:17Z</DateUtc></StartTime><FrequencyChanges><FrequencyChange><Frequency dt:dt=""r8"">3312890</Frequency><Timestamp dt:dt=""r8"">15121508198</Timestamp><Current dt:dt=""r8"">0</Current><DateUtc dt:dt=""string"">2015-05-26T09:04:17Z</DateUtc></FrequencyChange></FrequencyChanges></Clock>\n",Tweet_Rating_English_Right-41-1,59.821,1.0.0.325,English,1,Postgraduate student,-2057731985,Professional,2.0.10.353,2.0.10.353,05-26-2015,26/05/2015 09:04,10:04:17,male,2.0.10.248,4,4,1,4,BlockProc,BlockList,42,0,,1,3,3,h,59,2,2,,,,,,,TrialProc,889986,Yes,4298,894284,1,2969,897268,2,4393,901684,computer,3579,905284,TrialList,Anger is a cold blizzard.,,59,1,42
Tweet_Rating_English_Right,111,1,1,31-45,"<?xml version=""1.0""?>\n<Clock xmlns:dt=""urn:schemas-microsoft-com:datatypes""><Description dt:dt=""string"">E-Prime Primary Realtime Clock</Description><StartTime><Timestamp dt:dt=""int"">0</Timestamp><DateUtc dt:dt=""string"">2015-05-26T09:04:17Z</DateUtc></StartTime><FrequencyChanges><FrequencyChange><Frequency dt:dt=""r8"">3312890</Frequency><Timestamp dt:dt=""r8"">15121508198</Timestamp><Current dt:dt=""r8"">0</Current><DateUtc dt:dt=""string"">2015-05-26T09:04:17Z</DateUtc></FrequencyChange></FrequencyChanges></Clock>\n",Tweet_Rating_English_Right-41-1,59.821,1.0.0.325,English,1,Postgraduate student,-2057731985,Professional,2.0.10.353,2.0.10.353,05-26-2015,26/05/2015 09:04,10:04:17,male,2.0.10.248,4,4,1,4,BlockProc,BlockList,43,0,,2,1,1,h,54,1,1,,,,,,,TrialProc,909712,Yes,2140,911852,3,1336,913204,5,1574,914796,human,1529,916356,TrialList,Time is a good physician.,,54,1,43
Tweet_Rating_English_Right,111,1,1,31-45,"<?xml version=""1.0""?>\n<Clock xmlns:dt=""urn:schemas-microsoft-com:datatypes""><Description dt:dt=""string"">E-Prime Primary Realtime Clock</Description><StartTime><Timestamp dt:dt=""int"">0</Timestamp><DateUtc dt:dt=""string"">2015-05-26T09:04:17Z</DateUtc></StartTime><FrequencyChanges><FrequencyChange><Frequency dt:dt=""r8"">3312890</Frequency><Timestamp dt:dt=""r8"">15121508198</Timestamp><Current dt:dt=""r8"">0</Current><DateUtc dt:dt=""string"">2015-05-26T09:04:17Z</DateUtc></FrequencyChange></FrequencyChanges></Clock>\n",Tweet_Rating_English_Right-41-1,59.821,1.0.0.325,English,1,Postgraduate student,-2057731985,Professional,2.0.10.353,2.0.10.353,05-26-2015,26/05/2015 09:04,10:04:17,male,2.0.10.248,4,4,1,4,BlockProc,BlockList,44,0,,2,1,2,c,20,3,3,,,,,,,TrialProc,920644,No,7743,928387,,0,0,3,3354,931755,computer,3514,935291,TrialList,War is an exciting love.,,20,1,44
Tweet_Rating_English_Right,111,1,1,31-45,"<?xml version=""1.0""?>\n<Clock xmlns:dt=""urn:schemas-microsoft-com:datatypes""><Description dt:dt=""string"">E-Prime Primary Realtime Clock</Description><StartTime><Timestamp dt:dt=""int"">0</Timestamp><DateUtc dt:dt=""string"">2015-05-26T09:04:17Z</DateUtc></StartTime><FrequencyChanges><FrequencyChange><Frequency dt:dt=""r8"">3312890</Frequency><Timestamp dt:dt=""r8"">15121508198</Timestamp><Current dt:dt=""r8"">0</Current><DateUtc dt:dt=""string"">2015-05-26T09:04:17Z</DateUtc></FrequencyChange></FrequencyChanges></Clock>\n",Tweet_Rating_English_Right-41-1,59.821,1.0.0.325,English,1,Postgraduate student,-2057731985,Professional,2.0.10.353,2.0.10.353,05-26-2015,26/05/2015 09:04,10:04:17,male,2.0.10.248,4,4,1,4,BlockProc,BlockList,45,0,,2,2,2,c,38,2,2,,,,,,,TrialProc,939551,Yes,2156,941707,3,2823,944547,3,2477,947042,computer,3298,950354,TrialList,Love is a beneficial medicine. ,,38,1,45
Tweet_Rating_English_Right,111,1,1,31-45,"<?xml version=""1.0""?>\n<Clock xmlns:dt=""urn:schemas-microsoft-com:datatypes""><Description dt:dt=""string"">E-Prime Primary Realtime Clock</Description><StartTime><Timestamp dt:dt=""int"">0</Timestamp><DateUtc dt:dt=""string"">2015-05-26T09:04:17Z</DateUtc></StartTime><FrequencyChanges><FrequencyChange><Frequency dt:dt=""r8"">3312890</Frequency><Timestamp dt:dt=""r8"">15121508198</Timestamp><Current dt:dt=""r8"">0</Current><DateUtc dt:dt=""string"">2015-05-26T09:04:17Z</DateUtc></FrequencyChange></FrequencyChanges></Clock>\n",Tweet_Rating_English_Right-41-1,59.821,1.0.0.325,English,1,Postgraduate student,-2057731985,Professional,2.0.10.353,2.0.10.353,05-26-2015,26/05/2015 09:04,10:04:17,male,2.0.10.248,4,4,1,4,BlockProc,BlockList,46,0,,1,2,2,c,5,2,2,,,,,,,TrialProc,954813,Yes,1949,956762,2,3785,960570,4,1582,962178,computer,4073,966274,TrialList,Music is a comforting fire.,,5,1,46
Tweet_Rating_English_Right,111,1,1,31-45,"<?xml version=""1.0""?>\n<Clock xmlns:dt=""urn:schemas-microsoft-com:datatypes""><Description dt:dt=""string"">E-Prime Primary Realtime Clock</Description><StartTime><Timestamp dt:dt=""int"">0</Timestamp><DateUtc dt:dt=""string"">2015-05-26T09:04:17Z</DateUtc></StartTime><FrequencyChanges><FrequencyChange><Frequency dt:dt=""r8"">3312890</Frequency><Timestamp dt:dt=""r8"">15121508198</Timestamp><Current dt:dt=""r8"">0</Current><DateUtc dt:dt=""string"">2015-05-26T09:04:17Z</DateUtc></FrequencyChange></FrequencyChanges></Clock>\n",Tweet_Rating_English_Right-41-1,59.821,1.0.0.325,English,1,Postgraduate student,-2057731985,Professional,2.0.10.353,2.0.10.353,05-26-2015,26/05/2015 09:04,10:04:17,male,2.0.10.248,4,4,1,4,BlockProc,BlockList,47,0,,2,2,1,c,41,1,1,,,,,,,TrialProc,970676,Yes,6317,976993,2,3477,980489,3,2423,982929,computer,3783,986729,TrialList,Death is a relaxing sleep.,,41,1,47
Tweet_Rating_English_Right,111,1,1,31-45,"<?xml version=""1.0""?>\n<Clock xmlns:dt=""urn:schemas-microsoft-com:datatypes""><Description dt:dt=""string"">E-Prime Primary Realtime Clock</Description><StartTime><Timestamp dt:dt=""int"">0</Timestamp><DateUtc dt:dt=""string"">2015-05-26T09:04:17Z</DateUtc></StartTime><FrequencyChanges><FrequencyChange><Frequency dt:dt=""r8"">3312890</Frequency><Timestamp dt:dt=""r8"">15121508198</Timestamp><Current dt:dt=""r8"">0</Current><DateUtc dt:dt=""string"">2015-05-26T09:04:17Z</DateUtc></FrequencyChange></FrequencyChanges></Clock>\n",Tweet_Rating_English_Right-41-1,59.821,1.0.0.325,English,1,Postgraduate student,-2057731985,Professional,2.0.10.353,2.0.10.353,05-26-2015,26/05/2015 09:04,10:04:17,male,2.0.10.248,4,4,1,4,BlockProc,BlockList,48,0,,1,2,2,c,1,2,2,,,,,,,TrialProc,991171,No,4518,995689,,0,0,3,2787,998488,computer,1875,1000384,TrialList,Speech is a comforting song.,,1,1,48
Tweet_Rating_English_Right,111,1,1,31-45,"<?xml version=""1.0""?>\n<Clock xmlns:dt=""urn:schemas-microsoft-com:datatypes""><Description dt:dt=""string"">E-Prime Primary Realtime Clock</Description><StartTime><Timestamp dt:dt=""int"">0</Timestamp><DateUtc dt:dt=""string"">2015-05-26T09:04:17Z</DateUtc></StartTime><FrequencyChanges><FrequencyChange><Frequency dt:dt=""r8"">3312890</Frequency><Timestamp dt:dt=""r8"">15121508198</Timestamp><Current dt:dt=""r8"">0</Current><DateUtc dt:dt=""string"">2015-05-26T09:04:17Z</DateUtc></FrequencyChange></FrequencyChanges></Clock>\n",Tweet_Rating_English_Right-41-1,59.821,1.0.0.325,English,1,Postgraduate student,-2057731985,Professional,2.0.10.353,2.0.10.353,05-26-2015,26/05/2015 09:04,10:04:17,male,2.0.10.248,4,4,1,4,BlockProc,BlockList,49,0,,1,1,2,c,21,2,2,,,,,,,TrialProc,1004678,Yes,5706,1010384,1,1093,1011488,2,5269,1016784,computer,3259,1020056,TrialList,Teaching is a warming light.,,21,1,49
Tweet_Rating_English_Right,111,1,1,31-45,"<?xml version=""1.0""?>\n<Clock xmlns:dt=""urn:schemas-microsoft-com:datatypes""><Description dt:dt=""string"">E-Prime Primary Realtime Clock</Description><StartTime><Timestamp dt:dt=""int"">0</Timestamp><DateUtc dt:dt=""string"">2015-05-26T09:04:17Z</DateUtc></StartTime><FrequencyChanges><FrequencyChange><Frequency dt:dt=""r8"">3312890</Frequency><Timestamp dt:dt=""r8"">15121508198</Timestamp><Current dt:dt=""r8"">0</Current><DateUtc dt:dt=""string"">2015-05-26T09:04:17Z</DateUtc></FrequencyChange></FrequencyChanges></Clock>\n",Tweet_Rating_English_Right-41-1,59.821,1.0.0.325,English,1,Postgraduate student,-2057731985,Professional,2.0.10.353,2.0.10.353,05-26-2015,26/05/2015 09:04,10:04:17,male,2.0.10.248,4,4,1,4,BlockProc,BlockList,50,0,,1,2,1,c,45,3,3,,,,,,,TrialProc,1024604,No,5195,1029799,,0,0,1,5412,1035231,computer,4051,1039303,TrialList,Security is an invigorating energy.,,45,1,50
Tweet_Rating_English_Right,111,1,1,31-45,"<?xml version=""1.0""?>\n<Clock xmlns:dt=""urn:schemas-microsoft-com:datatypes""><Description dt:dt=""string"">E-Prime Primary Realtime Clock</Description><StartTime><Timestamp dt:dt=""int"">0</Timestamp><DateUtc dt:dt=""string"">2015-05-26T09:04:17Z</DateUtc></StartTime><FrequencyChanges><FrequencyChange><Frequency dt:dt=""r8"">3312890</Frequency><Timestamp dt:dt=""r8"">15121508198</Timestamp><Current dt:dt=""r8"">0</Current><DateUtc dt:dt=""string"">2015-05-26T09:04:17Z</DateUtc></FrequencyChange></FrequencyChanges></Clock>\n",Tweet_Rating_English_Right-41-1,59.821,1.0.0.325,English,1,Postgraduate student,-2057731985,Professional,2.0.10.353,2.0.10.353,05-26-2015,26/05/2015 09:04,10:04:17,male,2.0.10.248,4,4,1,4,BlockProc,BlockList,51,1,,1,1,2,c,17,3,2,,,,,,,TrialProc,1043543,No,5080,1048623,,0,0,2,2140,1050782,computer,2320,1053118,TrialList,Design is a warming light.,,17,1,51
Tweet_Rating_English_Right,111,1,1,31-45,"<?xml version=""1.0""?>\n<Clock xmlns:dt=""urn:schemas-microsoft-com:datatypes""><Description dt:dt=""string"">E-Prime Primary Realtime Clock</Description><StartTime><Timestamp dt:dt=""int"">0</Timestamp><DateUtc dt:dt=""string"">2015-05-26T09:04:17Z</DateUtc></StartTime><FrequencyChanges><FrequencyChange><Frequency dt:dt=""r8"">3312890</Frequency><Timestamp dt:dt=""r8"">15121508198</Timestamp><Current dt:dt=""r8"">0</Current><DateUtc dt:dt=""string"">2015-05-26T09:04:17Z</DateUtc></FrequencyChange></FrequencyChanges></Clock>\n",Tweet_Rating_English_Right-41-1,59.821,1.0.0.325,English,1,Postgraduate student,-2057731985,Professional,2.0.10.353,2.0.10.353,05-26-2015,26/05/2015 09:04,10:04:17,male,2.0.10.248,4,4,1,4,BlockProc,BlockList,52,0,,2,1,2,h,52,1,1,,,,,,,TrialProc,1057585,Yes,4157,1061742,2,3354,1065118,5,2289,1067430,human,3254,1070702,TrialList,Danger is a hot spice.,,52,1,52
Tweet_Rating_English_Right,111,1,1,31-45,"<?xml version=""1.0""?>\n<Clock xmlns:dt=""urn:schemas-microsoft-com:datatypes""><Description dt:dt=""string"">E-Prime Primary Realtime Clock</Description><StartTime><Timestamp dt:dt=""int"">0</Timestamp><DateUtc dt:dt=""string"">2015-05-26T09:04:17Z</DateUtc></StartTime><FrequencyChanges><FrequencyChange><Frequency dt:dt=""r8"">3312890</Frequency><Timestamp dt:dt=""r8"">15121508198</Timestamp><Current dt:dt=""r8"">0</Current><DateUtc dt:dt=""string"">2015-05-26T09:04:17Z</DateUtc></FrequencyChange></FrequencyChanges></Clock>\n",Tweet_Rating_English_Right-41-1,59.821,1.0.0.325,English,1,Postgraduate student,-2057731985,Professional,2.0.10.353,2.0.10.353,05-26-2015,26/05/2015 09:04,10:04:17,male,2.0.10.248,4,4,1,4,BlockProc,BlockList,53,0,,3,2,2,c,37,1,1,,,,,,,TrialProc,1075221,Yes,4288,1079509,2,3431,1082965,3,2419,1085413,human,3658,1089093,TrialList,Love is a beautiful painting.,,37,1,53
Tweet_Rating_English_Right,111,1,1,31-45,"<?xml version=""1.0""?>\n<Clock xmlns:dt=""urn:schemas-microsoft-com:datatypes""><Description dt:dt=""string"">E-Prime Primary Realtime Clock</Description><StartTime><Timestamp dt:dt=""int"">0</Timestamp><DateUtc dt:dt=""string"">2015-05-26T09:04:17Z</DateUtc></StartTime><FrequencyChanges><FrequencyChange><Frequency dt:dt=""r8"">3312890</Frequency><Timestamp dt:dt=""r8"">15121508198</Timestamp><Current dt:dt=""r8"">0</Current><DateUtc dt:dt=""string"">2015-05-26T09:04:17Z</DateUtc></FrequencyChange></FrequencyChanges></Clock>\n",Tweet_Rating_English_Right-41-1,59.821,1.0.0.325,English,1,Postgraduate student,-2057731985,Professional,2.0.10.353,2.0.10.353,05-26-2015,26/05/2015 09:04,10:04:17,male,2.0.10.248,4,4,1,4,BlockProc,BlockList,54,1,,2,3,2,c,50,3,1,,,,,,,TrialProc,1093458,Yes,1659,1095117,3,2987,1098117,4,2858,1100997,human,1407,1102421,TrialList,Truth is stunning beauty.,,50,1,54
Tweet_Rating_English_Right,111,1,1,31-45,"<?xml version=""1.0""?>\n<Clock xmlns:dt=""urn:schemas-microsoft-com:datatypes""><Description dt:dt=""string"">E-Prime Primary Realtime Clock</Description><StartTime><Timestamp dt:dt=""int"">0</Timestamp><DateUtc dt:dt=""string"">2015-05-26T09:04:17Z</DateUtc></StartTime><FrequencyChanges><FrequencyChange><Frequency dt:dt=""r8"">3312890</Frequency><Timestamp dt:dt=""r8"">15121508198</Timestamp><Current dt:dt=""r8"">0</Current><DateUtc dt:dt=""string"">2015-05-26T09:04:17Z</DateUtc></FrequencyChange></FrequencyChanges></Clock>\n",Tweet_Rating_English_Right-41-1,59.821,1.0.0.325,English,1,Postgraduate student,-2057731985,Professional,2.0.10.353,2.0.10.353,05-26-2015,26/05/2015 09:04,10:04:17,male,2.0.10.248,4,4,1,4,BlockProc,BlockList,55,0,,2,2,1,c,4,3,3,,,,,,,TrialProc,1106631,No,6389,1113020,,0,0,3,3355,1116388,computer,3434,1119844,TrialList,Fear is sweet love.,,4,1,55
Tweet_Rating_English_Right,111,1,1,31-45,"<?xml version=""1.0""?>\n<Clock xmlns:dt=""urn:schemas-microsoft-com:datatypes""><Description dt:dt=""string"">E-Prime Primary Realtime Clock</Description><StartTime><Timestamp dt:dt=""int"">0</Timestamp><DateUtc dt:dt=""string"">2015-05-26T09:04:17Z</DateUtc></StartTime><FrequencyChanges><FrequencyChange><Frequency dt:dt=""r8"">3312890</Frequency><Timestamp dt:dt=""r8"">15121508198</Timestamp><Current dt:dt=""r8"">0</Current><DateUtc dt:dt=""string"">2015-05-26T09:04:17Z</DateUtc></FrequencyChange></FrequencyChanges></Clock>\n",Tweet_Rating_English_Right-41-1,59.821,1.0.0.325,English,1,Postgraduate student,-2057731985,Professional,2.0.10.353,2.0.10.353,05-26-2015,26/05/2015 09:04,10:04:17,male,2.0.10.248,4,4,1,4,BlockProc,BlockList,56,0,,2,2,2,c,15,1,1,,,,,,,TrialProc,1123882,Yes,3538,1127420,2,2120,1129563,3,4140,1133723,computer,4530,1138275,TrialList,History is a modern science.,,15,1,56
Tweet_Rating_English_Right,111,1,1,31-45,"<?xml version=""1.0""?>\n<Clock xmlns:dt=""urn:schemas-microsoft-com:datatypes""><Description dt:dt=""string"">E-Prime Primary Realtime Clock</Description><StartTime><Timestamp dt:dt=""int"">0</Timestamp><DateUtc dt:dt=""string"">2015-05-26T09:04:17Z</DateUtc></StartTime><FrequencyChanges><FrequencyChange><Frequency dt:dt=""r8"">3312890</Frequency><Timestamp dt:dt=""r8"">15121508198</Timestamp><Current dt:dt=""r8"">0</Current><DateUtc dt:dt=""string"">2015-05-26T09:04:17Z</DateUtc></FrequencyChange></FrequencyChanges></Clock>\n",Tweet_Rating_English_Right-41-1,59.821,1.0.0.325,English,1,Postgraduate student,-2057731985,Professional,2.0.10.353,2.0.10.353,05-26-2015,26/05/2015 09:04,10:04:17,male,2.0.10.248,4,4,1,4,BlockProc,BlockList,57,0,,2,1,1,c,7,1,1,,,,,,,TrialProc,1142270,Yes,4077,1146347,2,2917,1149283,4,2431,1151739,human,3206,1154971,TrialList,Language is a celebrated art.,,7,1,57
Tweet_Rating_English_Right,111,1,1,31-45,"<?xml version=""1.0""?>\n<Clock xmlns:dt=""urn:schemas-microsoft-com:datatypes""><Description dt:dt=""string"">E-Prime Primary Realtime Clock</Description><StartTime><Timestamp dt:dt=""int"">0</Timestamp><DateUtc dt:dt=""string"">2015-05-26T09:04:17Z</DateUtc></StartTime><FrequencyChanges><FrequencyChange><Frequency dt:dt=""r8"">3312890</Frequency><Timestamp dt:dt=""r8"">15121508198</Timestamp><Current dt:dt=""r8"">0</Current><DateUtc dt:dt=""string"">2015-05-26T09:04:17Z</DateUtc></FrequencyChange></FrequencyChanges></Clock>\n",Tweet_Rating_English_Right-41-1,59.821,1.0.0.325,English,1,Postgraduate student,-2057731985,Professional,2.0.10.353,2.0.10.353,05-26-2015,26/05/2015 09:04,10:04:17,male,2.0.10.248,4,4,1,4,BlockProc,BlockList,58,0,,2,1,2,c,19,3,3,,,,,,,TrialProc,1159304,No,2882,1162186,,0,0,2,3661,1165874,computer,3535,1169426,TrialList,Disorder is a calming sleep.,,19,1,58
Tweet_Rating_English_Right,111,1,1,31-45,"<?xml version=""1.0""?>\n<Clock xmlns:dt=""urn:schemas-microsoft-com:datatypes""><Description dt:dt=""string"">E-Prime Primary Realtime Clock</Description><StartTime><Timestamp dt:dt=""int"">0</Timestamp><DateUtc dt:dt=""string"">2015-05-26T09:04:17Z</DateUtc></StartTime><FrequencyChanges><FrequencyChange><Frequency dt:dt=""r8"">3312890</Frequency><Timestamp dt:dt=""r8"">15121508198</Timestamp><Current dt:dt=""r8"">0</Current><DateUtc dt:dt=""string"">2015-05-26T09:04:17Z</DateUtc></FrequencyChange></FrequencyChanges></Clock>\n",Tweet_Rating_English_Right-41-1,59.821,1.0.0.325,English,1,Postgraduate student,-2057731985,Professional,2.0.10.353,2.0.10.353,05-26-2015,26/05/2015 09:04,10:04:17,male,2.0.10.248,4,4,1,4,BlockProc,BlockList,59,1,,2,2,1,c,18,2,1,,,,,,,TrialProc,1173998,Yes,3708,1177706,1,2020,1179746,2,4836,1184601,computer,2371,1187001,TrialList,Religion is a celebrated art.,,18,1,59
Tweet_Rating_English_Right,111,1,1,31-45,"<?xml version=""1.0""?>\n<Clock xmlns:dt=""urn:schemas-microsoft-com:datatypes""><Description dt:dt=""string"">E-Prime Primary Realtime Clock</Description><StartTime><Timestamp dt:dt=""int"">0</Timestamp><DateUtc dt:dt=""string"">2015-05-26T09:04:17Z</DateUtc></StartTime><FrequencyChanges><FrequencyChange><Frequency dt:dt=""r8"">3312890</Frequency><Timestamp dt:dt=""r8"">15121508198</Timestamp><Current dt:dt=""r8"">0</Current><DateUtc dt:dt=""string"">2015-05-26T09:04:17Z</DateUtc></FrequencyChange></FrequencyChanges></Clock>\n",Tweet_Rating_English_Right-41-1,59.821,1.0.0.325,English,1,Postgraduate student,-2057731985,Professional,2.0.10.353,2.0.10.353,05-26-2015,26/05/2015 09:04,10:04:17,male,2.0.10.248,4,4,1,4,BlockProc,BlockList,60,0,,2,1,2,c,28,2,2,,,,,,,TrialProc,1191132,Yes,2021,1193153,2,2629,1195801,4,1636,1197449,human,2533,1200001,TrialList,Love is a sparkling rainbow. ,,28,1,60
Tweet_Rating_English_Right,112,1,1,18-30,"<?xml version=""1.0""?>\n<Clock xmlns:dt=""urn:schemas-microsoft-com:datatypes""><Description dt:dt=""string"">E-Prime Primary Realtime Clock</Description><StartTime><Timestamp dt:dt=""int"">0</Timestamp><DateUtc dt:dt=""string"">2015-05-26T10:05:47Z</DateUtc></StartTime><FrequencyChanges><FrequencyChange><Frequency dt:dt=""r8"">3312890</Frequency><Timestamp dt:dt=""r8"">27346332343</Timestamp><Current dt:dt=""r8"">0</Current><DateUtc dt:dt=""string"">2015-05-26T10:05:47Z</DateUtc></FrequencyChange></FrequencyChanges></Clock>\n",Tweet_Rating_English_Right-42-1,59.822,1.0.0.326,English,1,Postgraduate student,1577203446,Professional,2.0.10.353,2.0.10.353,05-26-2015,26/05/2015 10:05,11:05:47,female,2.0.10.248,4,4,1,4,BlockProc,BlockList,1,1,,1,3,2,c,40,3,2,,,,,,,TrialProc,200813,Yes,2279,203092,2,2628,205732,2,1987,207732,computer,1653,209404,TrialList,Pain is an appealing beauty.,,40,1,1
Tweet_Rating_English_Right,112,1,1,18-30,"<?xml version=""1.0""?>\n<Clock xmlns:dt=""urn:schemas-microsoft-com:datatypes""><Description dt:dt=""string"">E-Prime Primary Realtime Clock</Description><StartTime><Timestamp dt:dt=""int"">0</Timestamp><DateUtc dt:dt=""string"">2015-05-26T10:05:47Z</DateUtc></StartTime><FrequencyChanges><FrequencyChange><Frequency dt:dt=""r8"">3312890</Frequency><Timestamp dt:dt=""r8"">27346332343</Timestamp><Current dt:dt=""r8"">0</Current><DateUtc dt:dt=""string"">2015-05-26T10:05:47Z</DateUtc></FrequencyChange></FrequencyChanges></Clock>\n",Tweet_Rating_English_Right-42-1,59.822,1.0.0.326,English,1,Postgraduate student,1577203446,Professional,2.0.10.353,2.0.10.353,05-26-2015,26/05/2015 10:05,11:05:47,female,2.0.10.248,4,4,1,4,BlockProc,BlockList,2,0,,1,2,1,c,45,3,3,,,,,,,TrialProc,214454,Yes,5173,219627,2,1374,221027,3,2435,223475,computer,1457,224955,TrialList,Security is an invigorating energy.,,45,1,2
Tweet_Rating_English_Right,112,1,1,18-30,"<?xml version=""1.0""?>\n<Clock xmlns:dt=""urn:schemas-microsoft-com:datatypes""><Description dt:dt=""string"">E-Prime Primary Realtime Clock</Description><StartTime><Timestamp dt:dt=""int"">0</Timestamp><DateUtc dt:dt=""string"">2015-05-26T10:05:47Z</DateUtc></StartTime><FrequencyChanges><FrequencyChange><Frequency dt:dt=""r8"">3312890</Frequency><Timestamp dt:dt=""r8"">27346332343</Timestamp><Current dt:dt=""r8"">0</Current><DateUtc dt:dt=""string"">2015-05-26T10:05:47Z</DateUtc></FrequencyChange></FrequencyChanges></Clock>\n",Tweet_Rating_English_Right-42-1,59.822,1.0.0.326,English,1,Postgraduate student,1577203446,Professional,2.0.10.353,2.0.10.353,05-26-2015,26/05/2015 10:05,11:05:47,female,2.0.10.248,4,4,1,4,BlockProc,BlockList,3,1,,1,1,2,c,17,3,2,,,,,,,TrialProc,229315,No,1680,230995,,0,0,1,1191,232211,computer,1315,233539,TrialList,Design is a warming light.,,17,1,3
Tweet_Rating_English_Right,112,1,1,18-30,"<?xml version=""1.0""?>\n<Clock xmlns:dt=""urn:schemas-microsoft-com:datatypes""><Description dt:dt=""string"">E-Prime Primary Realtime Clock</Description><StartTime><Timestamp dt:dt=""int"">0</Timestamp><DateUtc dt:dt=""string"">2015-05-26T10:05:47Z</DateUtc></StartTime><FrequencyChanges><FrequencyChange><Frequency dt:dt=""r8"">3312890</Frequency><Timestamp dt:dt=""r8"">27346332343</Timestamp><Current dt:dt=""r8"">0</Current><DateUtc dt:dt=""string"">2015-05-26T10:05:47Z</DateUtc></FrequencyChange></FrequencyChanges></Clock>\n",Tweet_Rating_English_Right-42-1,59.822,1.0.0.326,English,1,Postgraduate student,1577203446,Professional,2.0.10.353,2.0.10.353,05-26-2015,26/05/2015 10:05,11:05:47,female,2.0.10.248,4,4,1,4,BlockProc,BlockList,4,1,,2,2,1,c,18,2,1,,,,,,,TrialProc,237890,Yes,2464,240354,3,9158,249522,4,1652,251194,computer,1517,252730,TrialList,Religion is a celebrated art.,,18,1,4
Tweet_Rating_English_Right,112,1,1,18-30,"<?xml version=""1.0""?>\n<Clock xmlns:dt=""urn:schemas-microsoft-com:datatypes""><Description dt:dt=""string"">E-Prime Primary Realtime Clock</Description><StartTime><Timestamp dt:dt=""int"">0</Timestamp><DateUtc dt:dt=""string"">2015-05-26T10:05:47Z</DateUtc></StartTime><FrequencyChanges><FrequencyChange><Frequency dt:dt=""r8"">3312890</Frequency><Timestamp dt:dt=""r8"">27346332343</Timestamp><Current dt:dt=""r8"">0</Current><DateUtc dt:dt=""string"">2015-05-26T10:05:47Z</DateUtc></FrequencyChange></FrequencyChanges></Clock>\n",Tweet_Rating_English_Right-42-1,59.822,1.0.0.326,English,1,Postgraduate student,1577203446,Professional,2.0.10.353,2.0.10.353,05-26-2015,26/05/2015 10:05,11:05:47,female,2.0.10.248,4,4,1,4,BlockProc,BlockList,5,0,,2,3,3,c,24,1,1,,,,,,,TrialProc,257499,Yes,1095,258594,3,1215,259834,4,1418,261274,human,2908,264201,TrialList,Marriage is a hot hell.,,24,1,5
Tweet_Rating_English_Right,112,1,1,18-30,"<?xml version=""1.0""?>\n<Clock xmlns:dt=""urn:schemas-microsoft-com:datatypes""><Description dt:dt=""string"">E-Prime Primary Realtime Clock</Description><StartTime><Timestamp dt:dt=""int"">0</Timestamp><DateUtc dt:dt=""string"">2015-05-26T10:05:47Z</DateUtc></StartTime><FrequencyChanges><FrequencyChange><Frequency dt:dt=""r8"">3312890</Frequency><Timestamp dt:dt=""r8"">27346332343</Timestamp><Current dt:dt=""r8"">0</Current><DateUtc dt:dt=""string"">2015-05-26T10:05:47Z</DateUtc></FrequencyChange></FrequencyChanges></Clock>\n",Tweet_Rating_English_Right-42-1,59.822,1.0.0.326,English,1,Postgraduate student,1577203446,Professional,2.0.10.353,2.0.10.353,05-26-2015,26/05/2015 10:05,11:05:47,female,2.0.10.248,4,4,1,4,BlockProc,BlockList,6,0,,2,2,2,c,38,2,2,,,,,,,TrialProc,268749,Yes,2564,271313,3,3222,274545,3,1771,276337,computer,1454,277809,TrialList,Love is a beneficial medicine. ,,38,1,6
Tweet_Rating_English_Right,112,1,1,18-30,"<?xml version=""1.0""?>\n<Clock xmlns:dt=""urn:schemas-microsoft-com:datatypes""><Description dt:dt=""string"">E-Prime Primary Realtime Clock</Description><StartTime><Timestamp dt:dt=""int"">0</Timestamp><DateUtc dt:dt=""string"">2015-05-26T10:05:47Z</DateUtc></StartTime><FrequencyChanges><FrequencyChange><Frequency dt:dt=""r8"">3312890</Frequency><Timestamp dt:dt=""r8"">27346332343</Timestamp><Current dt:dt=""r8"">0</Current><DateUtc dt:dt=""string"">2015-05-26T10:05:47Z</DateUtc></FrequencyChange></FrequencyChanges></Clock>\n",Tweet_Rating_English_Right-42-1,59.822,1.0.0.326,English,1,Postgraduate student,1577203446,Professional,2.0.10.353,2.0.10.353,05-26-2015,26/05/2015 10:05,11:05:47,female,2.0.10.248,4,4,1,4,BlockProc,BlockList,7,0,,1,2,2,c,11,1,1,,,,,,,TrialProc,283510,Yes,1923,285433,3,1856,287305,4,2287,289608,computer,2004,291632,TrialList,Love is a comforting fire.,,11,1,7
Tweet_Rating_English_Right,112,1,1,18-30,"<?xml version=""1.0""?>\n<Clock xmlns:dt=""urn:schemas-microsoft-com:datatypes""><Description dt:dt=""string"">E-Prime Primary Realtime Clock</Description><StartTime><Timestamp dt:dt=""int"">0</Timestamp><DateUtc dt:dt=""string"">2015-05-26T10:05:47Z</DateUtc></StartTime><FrequencyChanges><FrequencyChange><Frequency dt:dt=""r8"">3312890</Frequency><Timestamp dt:dt=""r8"">27346332343</Timestamp><Current dt:dt=""r8"">0</Current><DateUtc dt:dt=""string"">2015-05-26T10:05:47Z</DateUtc></FrequencyChange></FrequencyChanges></Clock>\n",Tweet_Rating_English_Right-42-1,59.822,1.0.0.326,English,1,Postgraduate student,1577203446,Professional,2.0.10.353,2.0.10.353,05-26-2015,26/05/2015 10:05,11:05:47,female,2.0.10.248,4,4,1,4,BlockProc,BlockList,8,0,,2,1,1,c,12,1,1,,,,,,,TrialProc,295846,Yes,3322,299168,3,3771,302960,3,1768,304752,computer,1219,305992,TrialList,Life is an enjoyable comedy.,,12,1,8
Tweet_Rating_English_Right,112,1,1,18-30,"<?xml version=""1.0""?>\n<Clock xmlns:dt=""urn:schemas-microsoft-com:datatypes""><Description dt:dt=""string"">E-Prime Primary Realtime Clock</Description><StartTime><Timestamp dt:dt=""int"">0</Timestamp><DateUtc dt:dt=""string"">2015-05-26T10:05:47Z</DateUtc></StartTime><FrequencyChanges><FrequencyChange><Frequency dt:dt=""r8"">3312890</Frequency><Timestamp dt:dt=""r8"">27346332343</Timestamp><Current dt:dt=""r8"">0</Current><DateUtc dt:dt=""string"">2015-05-26T10:05:47Z</DateUtc></FrequencyChange></FrequencyChanges></Clock>\n",Tweet_Rating_English_Right-42-1,59.822,1.0.0.326,English,1,Postgraduate student,1577203446,Professional,2.0.10.353,2.0.10.353,05-26-2015,26/05/2015 10:05,11:05:47,female,2.0.10.248,4,4,1,4,BlockProc,BlockList,9,1,,2,3,2,c,50,3,1,,,,,,,TrialProc,310172,Yes,4764,314936,2,2038,316991,3,2702,319711,computer,1137,320871,TrialList,Truth is stunning beauty.,,50,1,9
Tweet_Rating_English_Right,112,1,1,18-30,"<?xml version=""1.0""?>\n<Clock xmlns:dt=""urn:schemas-microsoft-com:datatypes""><Description dt:dt=""string"">E-Prime Primary Realtime Clock</Description><StartTime><Timestamp dt:dt=""int"">0</Timestamp><DateUtc dt:dt=""string"">2015-05-26T10:05:47Z</DateUtc></StartTime><FrequencyChanges><FrequencyChange><Frequency dt:dt=""r8"">3312890</Frequency><Timestamp dt:dt=""r8"">27346332343</Timestamp><Current dt:dt=""r8"">0</Current><DateUtc dt:dt=""string"">2015-05-26T10:05:47Z</DateUtc></FrequencyChange></FrequencyChanges></Clock>\n",Tweet_Rating_English_Right-42-1,59.822,1.0.0.326,English,1,Postgraduate student,1577203446,Professional,2.0.10.353,2.0.10.353,05-26-2015,26/05/2015 10:05,11:05:47,female,2.0.10.248,4,4,1,4,BlockProc,BlockList,10,0,,1,1,2,c,44,3,3,,,,,,,TrialProc,325066,No,5525,330591,,0,0,1,1899,332515,computer,1364,333903,TrialList,Resistance is a warming light.,,44,1,10
Tweet_Rating_English_Right,112,1,1,18-30,"<?xml version=""1.0""?>\n<Clock xmlns:dt=""urn:schemas-microsoft-com:datatypes""><Description dt:dt=""string"">E-Prime Primary Realtime Clock</Description><StartTime><Timestamp dt:dt=""int"">0</Timestamp><DateUtc dt:dt=""string"">2015-05-26T10:05:47Z</DateUtc></StartTime><FrequencyChanges><FrequencyChange><Frequency dt:dt=""r8"">3312890</Frequency><Timestamp dt:dt=""r8"">27346332343</Timestamp><Current dt:dt=""r8"">0</Current><DateUtc dt:dt=""string"">2015-05-26T10:05:47Z</DateUtc></FrequencyChange></FrequencyChanges></Clock>\n",Tweet_Rating_English_Right-42-1,59.822,1.0.0.326,English,1,Postgraduate student,1577203446,Professional,2.0.10.353,2.0.10.353,05-26-2015,26/05/2015 10:05,11:05:47,female,2.0.10.248,4,4,1,4,BlockProc,BlockList,11,0,,2,1,2,h,52,1,1,,,,,,,TrialProc,338139,Yes,2980,341119,3,1083,342214,4,2548,344782,computer,1469,346278,TrialList,Danger is a hot spice.,,52,1,11
Tweet_Rating_English_Right,112,1,1,18-30,"<?xml version=""1.0""?>\n<Clock xmlns:dt=""urn:schemas-microsoft-com:datatypes""><Description dt:dt=""string"">E-Prime Primary Realtime Clock</Description><StartTime><Timestamp dt:dt=""int"">0</Timestamp><DateUtc dt:dt=""string"">2015-05-26T10:05:47Z</DateUtc></StartTime><FrequencyChanges><FrequencyChange><Frequency dt:dt=""r8"">3312890</Frequency><Timestamp dt:dt=""r8"">27346332343</Timestamp><Current dt:dt=""r8"">0</Current><DateUtc dt:dt=""string"">2015-05-26T10:05:47Z</DateUtc></FrequencyChange></FrequencyChanges></Clock>\n",Tweet_Rating_English_Right-42-1,59.822,1.0.0.326,English,1,Postgraduate student,1577203446,Professional,2.0.10.353,2.0.10.353,05-26-2015,26/05/2015 10:05,11:05:47,female,2.0.10.248,4,4,1,4,BlockProc,BlockList,12,1,,2,3,2,c,23,3,2,,,,,,,TrialProc,350459,Yes,1595,352054,3,1070,353150,4,2407,355574,computer,1151,356742,TrialList,Truth is soothing music.,,23,1,12
Tweet_Rating_English_Right,112,1,1,18-30,"<?xml version=""1.0""?>\n<Clock xmlns:dt=""urn:schemas-microsoft-com:datatypes""><Description dt:dt=""string"">E-Prime Primary Realtime Clock</Description><StartTime><Timestamp dt:dt=""int"">0</Timestamp><DateUtc dt:dt=""string"">2015-05-26T10:05:47Z</DateUtc></StartTime><FrequencyChanges><FrequencyChange><Frequency dt:dt=""r8"">3312890</Frequency><Timestamp dt:dt=""r8"">27346332343</Timestamp><Current dt:dt=""r8"">0</Current><DateUtc dt:dt=""string"">2015-05-26T10:05:47Z</DateUtc></FrequencyChange></FrequencyChanges></Clock>\n",Tweet_Rating_English_Right-42-1,59.822,1.0.0.326,English,1,Postgraduate student,1577203446,Professional,2.0.10.353,2.0.10.353,05-26-2015,26/05/2015 10:05,11:05:47,female,2.0.10.248,4,4,1,4,BlockProc,BlockList,13,1,,1,1,2,c,48,1,3,,,,,,,TrialProc,360906,No,2708,363614,,0,0,1,2343,365974,computer,2313,368301,TrialList,Government is a warming light.,,48,1,13
Tweet_Rating_English_Right,112,1,1,18-30,"<?xml version=""1.0""?>\n<Clock xmlns:dt=""urn:schemas-microsoft-com:datatypes""><Description dt:dt=""string"">E-Prime Primary Realtime Clock</Description><StartTime><Timestamp dt:dt=""int"">0</Timestamp><DateUtc dt:dt=""string"">2015-05-26T10:05:47Z</DateUtc></StartTime><FrequencyChanges><FrequencyChange><Frequency dt:dt=""r8"">3312890</Frequency><Timestamp dt:dt=""r8"">27346332343</Timestamp><Current dt:dt=""r8"">0</Current><DateUtc dt:dt=""string"">2015-05-26T10:05:47Z</DateUtc></FrequencyChange></FrequencyChanges></Clock>\n",Tweet_Rating_English_Right-42-1,59.822,1.0.0.326,English,1,Postgraduate student,1577203446,Professional,2.0.10.353,2.0.10.353,05-26-2015,26/05/2015 10:05,11:05:47,female,2.0.10.248,4,4,1,4,BlockProc,BlockList,14,0,,2,1,2,c,26,3,3,,,,,,,TrialProc,372441,No,4228,376669,,0,0,1,2142,378829,computer,1418,380261,TrialList,Business is a tasty wine. ,,26,1,14
Tweet_Rating_English_Right,112,1,1,18-30,"<?xml version=""1.0""?>\n<Clock xmlns:dt=""urn:schemas-microsoft-com:datatypes""><Description dt:dt=""string"">E-Prime Primary Realtime Clock</Description><StartTime><Timestamp dt:dt=""int"">0</Timestamp><DateUtc dt:dt=""string"">2015-05-26T10:05:47Z</DateUtc></StartTime><FrequencyChanges><FrequencyChange><Frequency dt:dt=""r8"">3312890</Frequency><Timestamp dt:dt=""r8"">27346332343</Timestamp><Current dt:dt=""r8"">0</Current><DateUtc dt:dt=""string"">2015-05-26T10:05:47Z</DateUtc></FrequencyChange></FrequencyChanges></Clock>\n",Tweet_Rating_English_Right-42-1,59.822,1.0.0.326,English,1,Postgraduate student,1577203446,Professional,2.0.10.353,2.0.10.353,05-26-2015,26/05/2015 10:05,11:05:47,female,2.0.10.248,4,4,1,4,BlockProc,BlockList,15,0,,2,1,1,c,7,1,1,,,,,,,TrialProc,384360,Yes,3101,387461,2,2215,389701,3,1639,391365,computer,1481,392861,TrialList,Language is a celebrated art.,,7,1,15
Tweet_Rating_English_Right,112,1,1,18-30,"<?xml version=""1.0""?>\n<Clock xmlns:dt=""urn:schemas-microsoft-com:datatypes""><Description dt:dt=""string"">E-Prime Primary Realtime Clock</Description><StartTime><Timestamp dt:dt=""int"">0</Timestamp><DateUtc dt:dt=""string"">2015-05-26T10:05:47Z</DateUtc></StartTime><FrequencyChanges><FrequencyChange><Frequency dt:dt=""r8"">3312890</Frequency><Timestamp dt:dt=""r8"">27346332343</Timestamp><Current dt:dt=""r8"">0</Current><DateUtc dt:dt=""string"">2015-05-26T10:05:47Z</DateUtc></FrequencyChange></FrequencyChanges></Clock>\n",Tweet_Rating_English_Right-42-1,59.822,1.0.0.326,English,1,Postgraduate student,1577203446,Professional,2.0.10.353,2.0.10.353,05-26-2015,26/05/2015 10:05,11:05:47,female,2.0.10.248,4,4,1,4,BlockProc,BlockList,16,0,,1,2,3,h,56,2,2,,,,,,,TrialProc,396980,Yes,3880,400860,3,2225,403100,4,1401,404516,computer,1828,406364,TrialList,Discipline is a strong fertilizer.,,56,1,16
Tweet_Rating_English_Right,112,1,1,18-30,"<?xml version=""1.0""?>\n<Clock xmlns:dt=""urn:schemas-microsoft-com:datatypes""><Description dt:dt=""string"">E-Prime Primary Realtime Clock</Description><StartTime><Timestamp dt:dt=""int"">0</Timestamp><DateUtc dt:dt=""string"">2015-05-26T10:05:47Z</DateUtc></StartTime><FrequencyChanges><FrequencyChange><Frequency dt:dt=""r8"">3312890</Frequency><Timestamp dt:dt=""r8"">27346332343</Timestamp><Current dt:dt=""r8"">0</Current><DateUtc dt:dt=""string"">2015-05-26T10:05:47Z</DateUtc></FrequencyChange></FrequencyChanges></Clock>\n",Tweet_Rating_English_Right-42-1,59.822,1.0.0.326,English,1,Postgraduate student,1577203446,Professional,2.0.10.353,2.0.10.353,05-26-2015,26/05/2015 10:05,11:05:47,female,2.0.10.248,4,4,1,4,BlockProc,BlockList,17,0,,1,1,2,c,30,2,2,,,,,,,TrialProc,410554,No,3194,413748,,0,0,2,1624,415388,computer,1634,417036,TrialList,Music is a warming light.,,30,1,17
Tweet_Rating_English_Right,112,1,1,18-30,"<?xml version=""1.0""?>\n<Clock xmlns:dt=""urn:schemas-microsoft-com:datatypes""><Description dt:dt=""string"">E-Prime Primary Realtime Clock</Description><StartTime><Timestamp dt:dt=""int"">0</Timestamp><DateUtc dt:dt=""string"">2015-05-26T10:05:47Z</DateUtc></StartTime><FrequencyChanges><FrequencyChange><Frequency dt:dt=""r8"">3312890</Frequency><Timestamp dt:dt=""r8"">27346332343</Timestamp><Current dt:dt=""r8"">0</Current><DateUtc dt:dt=""string"">2015-05-26T10:05:47Z</DateUtc></FrequencyChange></FrequencyChanges></Clock>\n",Tweet_Rating_English_Right-42-1,59.822,1.0.0.326,English,1,Postgraduate student,1577203446,Professional,2.0.10.353,2.0.10.353,05-26-2015,26/05/2015 10:05,11:05:47,female,2.0.10.248,4,4,1,4,BlockProc,BlockList,18,1,,1,2,2,c,9,3,2,,,,,,,TrialProc,421253,Yes,3110,424363,2,1616,425995,3,2426,428443,computer,1242,429699,TrialList,Power is a comforting fire.,,9,1,18
Tweet_Rating_English_Right,112,1,1,18-30,"<?xml version=""1.0""?>\n<Clock xmlns:dt=""urn:schemas-microsoft-com:datatypes""><Description dt:dt=""string"">E-Prime Primary Realtime Clock</Description><StartTime><Timestamp dt:dt=""int"">0</Timestamp><DateUtc dt:dt=""string"">2015-05-26T10:05:47Z</DateUtc></StartTime><FrequencyChanges><FrequencyChange><Frequency dt:dt=""r8"">3312890</Frequency><Timestamp dt:dt=""r8"">27346332343</Timestamp><Current dt:dt=""r8"">0</Current><DateUtc dt:dt=""string"">2015-05-26T10:05:47Z</DateUtc></FrequencyChange></FrequencyChanges></Clock>\n",Tweet_Rating_English_Right-42-1,59.822,1.0.0.326,English,1,Postgraduate student,1577203446,Professional,2.0.10.353,2.0.10.353,05-26-2015,26/05/2015 10:05,11:05:47,female,2.0.10.248,4,4,1,4,BlockProc,BlockList,19,1,,2,3,2,c,2,3,2,,,,,,,TrialProc,433823,Yes,4076,437899,2,2220,440139,3,3260,443419,computer,1352,444787,TrialList,Religion is relaxing music.,,2,1,19
Tweet_Rating_English_Right,112,1,1,18-30,"<?xml version=""1.0""?>\n<Clock xmlns:dt=""urn:schemas-microsoft-com:datatypes""><Description dt:dt=""string"">E-Prime Primary Realtime Clock</Description><StartTime><Timestamp dt:dt=""int"">0</Timestamp><DateUtc dt:dt=""string"">2015-05-26T10:05:47Z</DateUtc></StartTime><FrequencyChanges><FrequencyChange><Frequency dt:dt=""r8"">3312890</Frequency><Timestamp dt:dt=""r8"">27346332343</Timestamp><Current dt:dt=""r8"">0</Current><DateUtc dt:dt=""string"">2015-05-26T10:05:47Z</DateUtc></FrequencyChange></FrequencyChanges></Clock>\n",Tweet_Rating_English_Right-42-1,59.822,1.0.0.326,English,1,Postgraduate student,1577203446,Professional,2.0.10.353,2.0.10.353,05-26-2015,26/05/2015 10:05,11:05:47,female,2.0.10.248,4,4,1,4,BlockProc,BlockList,20,0,,1,1,2,c,10,2,2,,,,,,,TrialProc,449353,Yes,1321,450674,2,1304,451994,3,1367,453378,computer,1012,454410,TrialList,Security is a warming light.,,10,1,20
Tweet_Rating_English_Right,112,1,1,18-30,"<?xml version=""1.0""?>\n<Clock xmlns:dt=""urn:schemas-microsoft-com:datatypes""><Description dt:dt=""string"">E-Prime Primary Realtime Clock</Description><StartTime><Timestamp dt:dt=""int"">0</Timestamp><DateUtc dt:dt=""string"">2015-05-26T10:05:47Z</DateUtc></StartTime><FrequencyChanges><FrequencyChange><Frequency dt:dt=""r8"">3312890</Frequency><Timestamp dt:dt=""r8"">27346332343</Timestamp><Current dt:dt=""r8"">0</Current><DateUtc dt:dt=""string"">2015-05-26T10:05:47Z</DateUtc></FrequencyChange></FrequencyChanges></Clock>\n",Tweet_Rating_English_Right-42-1,59.822,1.0.0.326,English,1,Postgraduate student,1577203446,Professional,2.0.10.353,2.0.10.353,05-26-2015,26/05/2015 10:05,11:05:47,female,2.0.10.248,4,4,1,4,BlockProc,BlockList,21,1,,1,2,1,h,53,3,2,,,,,,,TrialProc,458631,Yes,2907,461538,2,3102,464658,4,4632,469314,computer,1281,470610,TrialList,Evolution is an ongoing lottery.,,53,1,21
Tweet_Rating_English_Right,112,1,1,18-30,"<?xml version=""1.0""?>\n<Clock xmlns:dt=""urn:schemas-microsoft-com:datatypes""><Description dt:dt=""string"">E-Prime Primary Realtime Clock</Description><StartTime><Timestamp dt:dt=""int"">0</Timestamp><DateUtc dt:dt=""string"">2015-05-26T10:05:47Z</DateUtc></StartTime><FrequencyChanges><FrequencyChange><Frequency dt:dt=""r8"">3312890</Frequency><Timestamp dt:dt=""r8"">27346332343</Timestamp><Current dt:dt=""r8"">0</Current><DateUtc dt:dt=""string"">2015-05-26T10:05:47Z</DateUtc></FrequencyChange></FrequencyChanges></Clock>\n",Tweet_Rating_English_Right-42-1,59.822,1.0.0.326,English,1,Postgraduate student,1577203446,Professional,2.0.10.353,2.0.10.353,05-26-2015,26/05/2015 10:05,11:05:47,female,2.0.10.248,4,4,1,4,BlockProc,BlockList,22,0,,2,2,2,c,22,2,2,,,,,,,TrialProc,474879,No,1842,476721,,0,0,1,1171,477905,computer,864,478785,TrialList,Medicine is tender love.,,22,1,22
Tweet_Rating_English_Right,112,1,1,18-30,"<?xml version=""1.0""?>\n<Clock xmlns:dt=""urn:schemas-microsoft-com:datatypes""><Description dt:dt=""string"">E-Prime Primary Realtime Clock</Description><StartTime><Timestamp dt:dt=""int"">0</Timestamp><DateUtc dt:dt=""string"">2015-05-26T10:05:47Z</DateUtc></StartTime><FrequencyChanges><FrequencyChange><Frequency dt:dt=""r8"">3312890</Frequency><Timestamp dt:dt=""r8"">27346332343</Timestamp><Current dt:dt=""r8"">0</Current><DateUtc dt:dt=""string"">2015-05-26T10:05:47Z</DateUtc></FrequencyChange></FrequencyChanges></Clock>\n",Tweet_Rating_English_Right-42-1,59.822,1.0.0.326,English,1,Postgraduate student,1577203446,Professional,2.0.10.353,2.0.10.353,05-26-2015,26/05/2015 10:05,11:05:47,female,2.0.10.248,4,4,1,4,BlockProc,BlockList,23,0,,1,2,3,c,31,2,2,,,,,,,TrialProc,484273,No,2200,486473,,0,0,2,1528,488025,computer,1062,489113,TrialList,Song is a comforting fire.,,31,1,23
Tweet_Rating_English_Right,112,1,1,18-30,"<?xml version=""1.0""?>\n<Clock xmlns:dt=""urn:schemas-microsoft-com:datatypes""><Description dt:dt=""string"">E-Prime Primary Realtime Clock</Description><StartTime><Timestamp dt:dt=""int"">0</Timestamp><DateUtc dt:dt=""string"">2015-05-26T10:05:47Z</DateUtc></StartTime><FrequencyChanges><FrequencyChange><Frequency dt:dt=""r8"">3312890</Frequency><Timestamp dt:dt=""r8"">27346332343</Timestamp><Current dt:dt=""r8"">0</Current><DateUtc dt:dt=""string"">2015-05-26T10:05:47Z</DateUtc></FrequencyChange></FrequencyChanges></Clock>\n",Tweet_Rating_English_Right-42-1,59.822,1.0.0.326,English,1,Postgraduate student,1577203446,Professional,2.0.10.353,2.0.10.353,05-26-2015,26/05/2015 10:05,11:05:47,female,2.0.10.248,4,4,1,4,BlockProc,BlockList,24,0,,2,2,2,h,60,1,1,,,,,,,TrialProc,493451,Yes,3110,496561,2,3735,500312,3,4838,505176,computer,1222,506424,TrialList,Education is a glowing lantern.,,60,1,24
Tweet_Rating_English_Right,112,1,1,18-30,"<?xml version=""1.0""?>\n<Clock xmlns:dt=""urn:schemas-microsoft-com:datatypes""><Description dt:dt=""string"">E-Prime Primary Realtime Clock</Description><StartTime><Timestamp dt:dt=""int"">0</Timestamp><DateUtc dt:dt=""string"">2015-05-26T10:05:47Z</DateUtc></StartTime><FrequencyChanges><FrequencyChange><Frequency dt:dt=""r8"">3312890</Frequency><Timestamp dt:dt=""r8"">27346332343</Timestamp><Current dt:dt=""r8"">0</Current><DateUtc dt:dt=""string"">2015-05-26T10:05:47Z</DateUtc></FrequencyChange></FrequencyChanges></Clock>\n",Tweet_Rating_English_Right-42-1,59.822,1.0.0.326,English,1,Postgraduate student,1577203446,Professional,2.0.10.353,2.0.10.353,05-26-2015,26/05/2015 10:05,11:05:47,female,2.0.10.248,4,4,1,4,BlockProc,BlockList,25,0,,2,2,1,c,41,1,1,,,,,,,TrialProc,510535,Yes,1633,512168,3,1666,513856,4,1506,515384,computer,1273,516672,TrialList,Death is a relaxing sleep.,,41,1,25
Tweet_Rating_English_Right,112,1,1,18-30,"<?xml version=""1.0""?>\n<Clock xmlns:dt=""urn:schemas-microsoft-com:datatypes""><Description dt:dt=""string"">E-Prime Primary Realtime Clock</Description><StartTime><Timestamp dt:dt=""int"">0</Timestamp><DateUtc dt:dt=""string"">2015-05-26T10:05:47Z</DateUtc></StartTime><FrequencyChanges><FrequencyChange><Frequency dt:dt=""r8"">3312890</Frequency><Timestamp dt:dt=""r8"">27346332343</Timestamp><Current dt:dt=""r8"">0</Current><DateUtc dt:dt=""string"">2015-05-26T10:05:47Z</DateUtc></FrequencyChange></FrequencyChanges></Clock>\n",Tweet_Rating_English_Right-42-1,59.822,1.0.0.326,English,1,Postgraduate student,1577203446,Professional,2.0.10.353,2.0.10.353,05-26-2015,26/05/2015 10:05,11:05:47,female,2.0.10.248,4,4,1,4,BlockProc,BlockList,26,0,,1,1,2,c,47,1,1,,,,,,,TrialProc,521033,Yes,1807,522840,3,1313,524168,5,1016,525208,computer,4922,530151,TrialList,Learning is a rewarding investment. ,,47,1,26
Tweet_Rating_English_Right,112,1,1,18-30,"<?xml version=""1.0""?>\n<Clock xmlns:dt=""urn:schemas-microsoft-com:datatypes""><Description dt:dt=""string"">E-Prime Primary Realtime Clock</Description><StartTime><Timestamp dt:dt=""int"">0</Timestamp><DateUtc dt:dt=""string"">2015-05-26T10:05:47Z</DateUtc></StartTime><FrequencyChanges><FrequencyChange><Frequency dt:dt=""r8"">3312890</Frequency><Timestamp dt:dt=""r8"">27346332343</Timestamp><Current dt:dt=""r8"">0</Current><DateUtc dt:dt=""string"">2015-05-26T10:05:47Z</DateUtc></FrequencyChange></FrequencyChanges></Clock>\n",Tweet_Rating_English_Right-42-1,59.822,1.0.0.326,English,1,Postgraduate student,1577203446,Professional,2.0.10.353,2.0.10.353,05-26-2015,26/05/2015 10:05,11:05:47,female,2.0.10.248,4,4,1,4,BlockProc,BlockList,27,0,,2,2,2,c,25,2,2,,,,,,,TrialProc,534306,No,2069,536375,,0,0,2,2116,538511,computer,1432,539967,TrialList,Food is enjoyable music.,,25,1,27
Tweet_Rating_English_Right,112,1,1,18-30,"<?xml version=""1.0""?>\n<Clock xmlns:dt=""urn:schemas-microsoft-com:datatypes""><Description dt:dt=""string"">E-Prime Primary Realtime Clock</Description><StartTime><Timestamp dt:dt=""int"">0</Timestamp><DateUtc dt:dt=""string"">2015-05-26T10:05:47Z</DateUtc></StartTime><FrequencyChanges><FrequencyChange><Frequency dt:dt=""r8"">3312890</Frequency><Timestamp dt:dt=""r8"">27346332343</Timestamp><Current dt:dt=""r8"">0</Current><DateUtc dt:dt=""string"">2015-05-26T10:05:47Z</DateUtc></FrequencyChange></FrequencyChanges></Clock>\n",Tweet_Rating_English_Right-42-1,59.822,1.0.0.326,English,1,Postgraduate student,1577203446,Professional,2.0.10.353,2.0.10.353,05-26-2015,26/05/2015 10:05,11:05:47,female,2.0.10.248,4,4,1,4,BlockProc,BlockList,28,1,,2,2,2,c,34,2,1,,,,,,,TrialProc,544235,No,3076,547311,,0,0,2,1855,549183,computer,1063,550263,TrialList,Destiny is a lovely heaven. ,,34,1,28
Tweet_Rating_English_Right,112,1,1,18-30,"<?xml version=""1.0""?>\n<Clock xmlns:dt=""urn:schemas-microsoft-com:datatypes""><Description dt:dt=""string"">E-Prime Primary Realtime Clock</Description><StartTime><Timestamp dt:dt=""int"">0</Timestamp><DateUtc dt:dt=""string"">2015-05-26T10:05:47Z</DateUtc></StartTime><FrequencyChanges><FrequencyChange><Frequency dt:dt=""r8"">3312890</Frequency><Timestamp dt:dt=""r8"">27346332343</Timestamp><Current dt:dt=""r8"">0</Current><DateUtc dt:dt=""string"">2015-05-26T10:05:47Z</DateUtc></FrequencyChange></FrequencyChanges></Clock>\n",Tweet_Rating_English_Right-42-1,59.822,1.0.0.326,English,1,Postgraduate student,1577203446,Professional,2.0.10.353,2.0.10.353,05-26-2015,26/05/2015 10:05,11:05:47,female,2.0.10.248,4,4,1,4,BlockProc,BlockList,29,0,,1,3,2,c,3,3,3,,,,,,,TrialProc,555402,No,1652,557054,,0,0,1,1101,558174,computer,1357,559550,TrialList,Business is pure water.,,3,1,29
Tweet_Rating_English_Right,112,1,1,18-30,"<?xml version=""1.0""?>\n<Clock xmlns:dt=""urn:schemas-microsoft-com:datatypes""><Description dt:dt=""string"">E-Prime Primary Realtime Clock</Description><StartTime><Timestamp dt:dt=""int"">0</Timestamp><DateUtc dt:dt=""string"">2015-05-26T10:05:47Z</DateUtc></StartTime><FrequencyChanges><FrequencyChange><Frequency dt:dt=""r8"">3312890</Frequency><Timestamp dt:dt=""r8"">27346332343</Timestamp><Current dt:dt=""r8"">0</Current><DateUtc dt:dt=""string"">2015-05-26T10:05:47Z</DateUtc></FrequencyChange></FrequencyChanges></Clock>\n",Tweet_Rating_English_Right-42-1,59.822,1.0.0.326,English,1,Postgraduate student,1577203446,Professional,2.0.10.353,2.0.10.353,05-26-2015,26/05/2015 10:05,11:05:47,female,2.0.10.248,4,4,1,4,BlockProc,BlockList,30,0,,2,1,1,h,54,1,1,,,,,,,TrialProc,563860,Yes,2146,566006,3,1053,567070,5,2335,569422,computer,1962,571406,TrialList,Time is a good physician.,,54,1,30
Tweet_Rating_English_Right,112,1,1,18-30,"<?xml version=""1.0""?>\n<Clock xmlns:dt=""urn:schemas-microsoft-com:datatypes""><Description dt:dt=""string"">E-Prime Primary Realtime Clock</Description><StartTime><Timestamp dt:dt=""int"">0</Timestamp><DateUtc dt:dt=""string"">2015-05-26T10:05:47Z</DateUtc></StartTime><FrequencyChanges><FrequencyChange><Frequency dt:dt=""r8"">3312890</Frequency><Timestamp dt:dt=""r8"">27346332343</Timestamp><Current dt:dt=""r8"">0</Current><DateUtc dt:dt=""string"">2015-05-26T10:05:47Z</DateUtc></FrequencyChange></FrequencyChanges></Clock>\n",Tweet_Rating_English_Right-42-1,59.822,1.0.0.326,English,1,Postgraduate student,1577203446,Professional,2.0.10.353,2.0.10.353,05-26-2015,26/05/2015 10:05,11:05:47,female,2.0.10.248,4,4,1,4,BlockProc,BlockList,31,0,,1,1,2,c,43,3,3,,,,,,,TrialProc,575712,No,1662,577374,,0,0,1,1292,578693,computer,2516,581237,TrialList,Disease is a warming light.,,43,1,31
Tweet_Rating_English_Right,112,1,1,18-30,"<?xml version=""1.0""?>\n<Clock xmlns:dt=""urn:schemas-microsoft-com:datatypes""><Description dt:dt=""string"">E-Prime Primary Realtime Clock</Description><StartTime><Timestamp dt:dt=""int"">0</Timestamp><DateUtc dt:dt=""string"">2015-05-26T10:05:47Z</DateUtc></StartTime><FrequencyChanges><FrequencyChange><Frequency dt:dt=""r8"">3312890</Frequency><Timestamp dt:dt=""r8"">27346332343</Timestamp><Current dt:dt=""r8"">0</Current><DateUtc dt:dt=""string"">2015-05-26T10:05:47Z</DateUtc></FrequencyChange></FrequencyChanges></Clock>\n",Tweet_Rating_English_Right-42-1,59.822,1.0.0.326,English,1,Postgraduate student,1577203446,Professional,2.0.10.353,2.0.10.353,05-26-2015,26/05/2015 10:05,11:05:47,female,2.0.10.248,4,4,1,4,BlockProc,BlockList,32,0,,1,2,2,h,51,1,1,,,,,,,TrialProc,585424,Yes,6685,592109,2,2181,594309,3,4015,598349,computer,1314,599677,TrialList,Wisdom is a distant foreigner.,,51,1,32
Tweet_Rating_English_Right,112,1,1,18-30,"<?xml version=""1.0""?>\n<Clock xmlns:dt=""urn:schemas-microsoft-com:datatypes""><Description dt:dt=""string"">E-Prime Primary Realtime Clock</Description><StartTime><Timestamp dt:dt=""int"">0</Timestamp><DateUtc dt:dt=""string"">2015-05-26T10:05:47Z</DateUtc></StartTime><FrequencyChanges><FrequencyChange><Frequency dt:dt=""r8"">3312890</Frequency><Timestamp dt:dt=""r8"">27346332343</Timestamp><Current dt:dt=""r8"">0</Current><DateUtc dt:dt=""string"">2015-05-26T10:05:47Z</DateUtc></FrequencyChange></FrequencyChanges></Clock>\n",Tweet_Rating_English_Right-42-1,59.822,1.0.0.326,English,1,Postgraduate student,1577203446,Professional,2.0.10.353,2.0.10.353,05-26-2015,26/05/2015 10:05,11:05:47,female,2.0.10.248,4,4,1,4,BlockProc,BlockList,33,0,,2,2,2,h,58,2,2,,,,,,,TrialProc,603812,Yes,2952,606764,3,1392,608180,4,1340,609532,computer,1138,610684,TrialList,History is a cracked mirror.,,58,1,33
Tweet_Rating_English_Right,112,1,1,18-30,"<?xml version=""1.0""?>\n<Clock xmlns:dt=""urn:schemas-microsoft-com:datatypes""><Description dt:dt=""string"">E-Prime Primary Realtime Clock</Description><StartTime><Timestamp dt:dt=""int"">0</Timestamp><DateUtc dt:dt=""string"">2015-05-26T10:05:47Z</DateUtc></StartTime><FrequencyChanges><FrequencyChange><Frequency dt:dt=""r8"">3312890</Frequency><Timestamp dt:dt=""r8"">27346332343</Timestamp><Current dt:dt=""r8"">0</Current><DateUtc dt:dt=""string"">2015-05-26T10:05:47Z</DateUtc></FrequencyChange></FrequencyChanges></Clock>\n",Tweet_Rating_English_Right-42-1,59.822,1.0.0.326,English,1,Postgraduate student,1577203446,Professional,2.0.10.353,2.0.10.353,05-26-2015,26/05/2015 10:05,11:05:47,female,2.0.10.248,4,4,1,4,BlockProc,BlockList,34,0,,2,2,2,c,15,1,1,,,,,,,TrialProc,614795,Yes,2377,617172,3,986,618172,5,1519,619708,computer,998,620724,TrialList,History is a modern science.,,15,1,34
Tweet_Rating_English_Right,112,1,1,18-30,"<?xml version=""1.0""?>\n<Clock xmlns:dt=""urn:schemas-microsoft-com:datatypes""><Description dt:dt=""string"">E-Prime Primary Realtime Clock</Description><StartTime><Timestamp dt:dt=""int"">0</Timestamp><DateUtc dt:dt=""string"">2015-05-26T10:05:47Z</DateUtc></StartTime><FrequencyChanges><FrequencyChange><Frequency dt:dt=""r8"">3312890</Frequency><Timestamp dt:dt=""r8"">27346332343</Timestamp><Current dt:dt=""r8"">0</Current><DateUtc dt:dt=""string"">2015-05-26T10:05:47Z</DateUtc></FrequencyChange></FrequencyChanges></Clock>\n",Tweet_Rating_English_Right-42-1,59.822,1.0.0.326,English,1,Postgraduate student,1577203446,Professional,2.0.10.353,2.0.10.353,05-26-2015,26/05/2015 10:05,11:05:47,female,2.0.10.248,4,4,1,4,BlockProc,BlockList,35,0,,2,1,2,c,20,3,3,,,,,,,TrialProc,625009,No,2011,627020,,0,0,1,2788,629820,computer,1395,631235,TrialList,War is an exciting love.,,20,1,35
Tweet_Rating_English_Right,112,1,1,18-30,"<?xml version=""1.0""?>\n<Clock xmlns:dt=""urn:schemas-microsoft-com:datatypes""><Description dt:dt=""string"">E-Prime Primary Realtime Clock</Description><StartTime><Timestamp dt:dt=""int"">0</Timestamp><DateUtc dt:dt=""string"">2015-05-26T10:05:47Z</DateUtc></StartTime><FrequencyChanges><FrequencyChange><Frequency dt:dt=""r8"">3312890</Frequency><Timestamp dt:dt=""r8"">27346332343</Timestamp><Current dt:dt=""r8"">0</Current><DateUtc dt:dt=""string"">2015-05-26T10:05:47Z</DateUtc></FrequencyChange></FrequencyChanges></Clock>\n",Tweet_Rating_English_Right-42-1,59.822,1.0.0.326,English,1,Postgraduate student,1577203446,Professional,2.0.10.353,2.0.10.353,05-26-2015,26/05/2015 10:05,11:05:47,female,2.0.10.248,4,4,1,4,BlockProc,BlockList,36,0,,1,1,2,c,32,2,2,,,,,,,TrialProc,635340,No,3095,638435,,0,0,2,1354,639803,computer,1271,641091,TrialList,Technology is a warming light. ,,32,1,36
Tweet_Rating_English_Right,112,1,1,18-30,"<?xml version=""1.0""?>\n<Clock xmlns:dt=""urn:schemas-microsoft-com:datatypes""><Description dt:dt=""string"">E-Prime Primary Realtime Clock</Description><StartTime><Timestamp dt:dt=""int"">0</Timestamp><DateUtc dt:dt=""string"">2015-05-26T10:05:47Z</DateUtc></StartTime><FrequencyChanges><FrequencyChange><Frequency dt:dt=""r8"">3312890</Frequency><Timestamp dt:dt=""r8"">27346332343</Timestamp><Current dt:dt=""r8"">0</Current><DateUtc dt:dt=""string"">2015-05-26T10:05:47Z</DateUtc></FrequencyChange></FrequencyChanges></Clock>\n",Tweet_Rating_English_Right-42-1,59.822,1.0.0.326,English,1,Postgraduate student,1577203446,Professional,2.0.10.353,2.0.10.353,05-26-2015,26/05/2015 10:05,11:05:47,female,2.0.10.248,4,4,1,4,BlockProc,BlockList,37,0,,2,2,1,c,4,3,3,,,,,,,TrialProc,645286,No,2349,647635,,0,0,1,1711,649371,computer,2070,651451,TrialList,Fear is sweet love.,,4,1,37
Tweet_Rating_English_Right,112,1,1,18-30,"<?xml version=""1.0""?>\n<Clock xmlns:dt=""urn:schemas-microsoft-com:datatypes""><Description dt:dt=""string"">E-Prime Primary Realtime Clock</Description><StartTime><Timestamp dt:dt=""int"">0</Timestamp><DateUtc dt:dt=""string"">2015-05-26T10:05:47Z</DateUtc></StartTime><FrequencyChanges><FrequencyChange><Frequency dt:dt=""r8"">3312890</Frequency><Timestamp dt:dt=""r8"">27346332343</Timestamp><Current dt:dt=""r8"">0</Current><DateUtc dt:dt=""string"">2015-05-26T10:05:47Z</DateUtc></FrequencyChange></FrequencyChanges></Clock>\n",Tweet_Rating_English_Right-42-1,59.822,1.0.0.326,English,1,Postgraduate student,1577203446,Professional,2.0.10.353,2.0.10.353,05-26-2015,26/05/2015 10:05,11:05:47,female,2.0.10.248,4,4,1,4,BlockProc,BlockList,38,0,,2,2,3,c,42,2,2,,,,,,,TrialProc,655583,Yes,4587,660170,3,4261,664458,3,1766,666242,computer,2729,668994,TrialList,Writing is soothing healing.,,42,1,38
Tweet_Rating_English_Right,112,1,1,18-30,"<?xml version=""1.0""?>\n<Clock xmlns:dt=""urn:schemas-microsoft-com:datatypes""><Description dt:dt=""string"">E-Prime Primary Realtime Clock</Description><StartTime><Timestamp dt:dt=""int"">0</Timestamp><DateUtc dt:dt=""string"">2015-05-26T10:05:47Z</DateUtc></StartTime><FrequencyChanges><FrequencyChange><Frequency dt:dt=""r8"">3312890</Frequency><Timestamp dt:dt=""r8"">27346332343</Timestamp><Current dt:dt=""r8"">0</Current><DateUtc dt:dt=""string"">2015-05-26T10:05:47Z</DateUtc></FrequencyChange></FrequencyChanges></Clock>\n",Tweet_Rating_English_Right-42-1,59.822,1.0.0.326,English,1,Postgraduate student,1577203446,Professional,2.0.10.353,2.0.10.353,05-26-2015,26/05/2015 10:05,11:05:47,female,2.0.10.248,4,4,1,4,BlockProc,BlockList,39,0,,1,2,2,c,46,1,1,,,,,,,TrialProc,673119,Yes,2363,675482,2,1526,677018,3,1156,678186,computer,1410,679610,TrialList,Imagination is attractive beauty.,,46,1,39
Tweet_Rating_English_Right,112,1,1,18-30,"<?xml version=""1.0""?>\n<Clock xmlns:dt=""urn:schemas-microsoft-com:datatypes""><Description dt:dt=""string"">E-Prime Primary Realtime Clock</Description><StartTime><Timestamp dt:dt=""int"">0</Timestamp><DateUtc dt:dt=""string"">2015-05-26T10:05:47Z</DateUtc></StartTime><FrequencyChanges><FrequencyChange><Frequency dt:dt=""r8"">3312890</Frequency><Timestamp dt:dt=""r8"">27346332343</Timestamp><Current dt:dt=""r8"">0</Current><DateUtc dt:dt=""string"">2015-05-26T10:05:47Z</DateUtc></FrequencyChange></FrequencyChanges></Clock>\n",Tweet_Rating_English_Right-42-1,59.822,1.0.0.326,English,1,Postgraduate student,1577203446,Professional,2.0.10.353,2.0.10.353,05-26-2015,26/05/2015 10:05,11:05:47,female,2.0.10.248,4,4,1,4,BlockProc,BlockList,40,0,,2,3,1,c,39,3,3,,,,,,,TrialProc,683767,No,2322,686089,,0,0,2,2094,688201,computer,3571,691785,TrialList,Government is a charming painting.,,39,1,40
Tweet_Rating_English_Right,112,1,1,18-30,"<?xml version=""1.0""?>\n<Clock xmlns:dt=""urn:schemas-microsoft-com:datatypes""><Description dt:dt=""string"">E-Prime Primary Realtime Clock</Description><StartTime><Timestamp dt:dt=""int"">0</Timestamp><DateUtc dt:dt=""string"">2015-05-26T10:05:47Z</DateUtc></StartTime><FrequencyChanges><FrequencyChange><Frequency dt:dt=""r8"">3312890</Frequency><Timestamp dt:dt=""r8"">27346332343</Timestamp><Current dt:dt=""r8"">0</Current><DateUtc dt:dt=""string"">2015-05-26T10:05:47Z</DateUtc></FrequencyChange></FrequencyChanges></Clock>\n",Tweet_Rating_English_Right-42-1,59.822,1.0.0.326,English,1,Postgraduate student,1577203446,Professional,2.0.10.353,2.0.10.353,05-26-2015,26/05/2015 10:05,11:05:47,female,2.0.10.248,4,4,1,4,BlockProc,BlockList,41,0,,2,2,3,c,13,2,2,,,,,,,TrialProc,696154,Yes,6727,702881,2,2438,705345,3,3580,708945,computer,921,709880,TrialList,Life is an appealing wine.,,13,1,41
Tweet_Rating_English_Right,112,1,1,18-30,"<?xml version=""1.0""?>\n<Clock xmlns:dt=""urn:schemas-microsoft-com:datatypes""><Description dt:dt=""string"">E-Prime Primary Realtime Clock</Description><StartTime><Timestamp dt:dt=""int"">0</Timestamp><DateUtc dt:dt=""string"">2015-05-26T10:05:47Z</DateUtc></StartTime><FrequencyChanges><FrequencyChange><Frequency dt:dt=""r8"">3312890</Frequency><Timestamp dt:dt=""r8"">27346332343</Timestamp><Current dt:dt=""r8"">0</Current><DateUtc dt:dt=""string"">2015-05-26T10:05:47Z</DateUtc></FrequencyChange></FrequencyChanges></Clock>\n",Tweet_Rating_English_Right-42-1,59.822,1.0.0.326,English,1,Postgraduate student,1577203446,Professional,2.0.10.353,2.0.10.353,05-26-2015,26/05/2015 10:05,11:05:47,female,2.0.10.248,4,4,1,4,BlockProc,BlockList,42,0,,2,3,2,c,36,1,1,,,,,,,TrialProc,714124,Yes,1724,715848,3,1961,717824,3,3325,721160,computer,966,722144,TrialList,Love is soothing music.,,36,1,42
Tweet_Rating_English_Right,112,1,1,18-30,"<?xml version=""1.0""?>\n<Clock xmlns:dt=""urn:schemas-microsoft-com:datatypes""><Description dt:dt=""string"">E-Prime Primary Realtime Clock</Description><StartTime><Timestamp dt:dt=""int"">0</Timestamp><DateUtc dt:dt=""string"">2015-05-26T10:05:47Z</DateUtc></StartTime><FrequencyChanges><FrequencyChange><Frequency dt:dt=""r8"">3312890</Frequency><Timestamp dt:dt=""r8"">27346332343</Timestamp><Current dt:dt=""r8"">0</Current><DateUtc dt:dt=""string"">2015-05-26T10:05:47Z</DateUtc></FrequencyChange></FrequencyChanges></Clock>\n",Tweet_Rating_English_Right-42-1,59.822,1.0.0.326,English,1,Postgraduate student,1577203446,Professional,2.0.10.353,2.0.10.353,05-26-2015,26/05/2015 10:05,11:05:47,female,2.0.10.248,4,4,1,4,BlockProc,BlockList,43,0,,1,1,2,c,33,2,2,,,,,,,TrialProc,726310,Yes,3514,729824,2,1267,731104,2,5378,736503,computer,947,737471,TrialList,Programming is a cherished art. ,,33,1,43
Tweet_Rating_English_Right,112,1,1,18-30,"<?xml version=""1.0""?>\n<Clock xmlns:dt=""urn:schemas-microsoft-com:datatypes""><Description dt:dt=""string"">E-Prime Primary Realtime Clock</Description><StartTime><Timestamp dt:dt=""int"">0</Timestamp><DateUtc dt:dt=""string"">2015-05-26T10:05:47Z</DateUtc></StartTime><FrequencyChanges><FrequencyChange><Frequency dt:dt=""r8"">3312890</Frequency><Timestamp dt:dt=""r8"">27346332343</Timestamp><Current dt:dt=""r8"">0</Current><DateUtc dt:dt=""string"">2015-05-26T10:05:47Z</DateUtc></FrequencyChange></FrequencyChanges></Clock>\n",Tweet_Rating_English_Right-42-1,59.822,1.0.0.326,English,1,Postgraduate student,1577203446,Professional,2.0.10.353,2.0.10.353,05-26-2015,26/05/2015 10:05,11:05:47,female,2.0.10.248,4,4,1,4,BlockProc,BlockList,44,0,,2,1,2,c,19,3,3,,,,,,,TrialProc,741639,No,2264,743903,,0,0,1,1222,745151,computer,961,746127,TrialList,Disorder is a calming sleep.,,19,1,44
Tweet_Rating_English_Right,112,1,1,18-30,"<?xml version=""1.0""?>\n<Clock xmlns:dt=""urn:schemas-microsoft-com:datatypes""><Description dt:dt=""string"">E-Prime Primary Realtime Clock</Description><StartTime><Timestamp dt:dt=""int"">0</Timestamp><DateUtc dt:dt=""string"">2015-05-26T10:05:47Z</DateUtc></StartTime><FrequencyChanges><FrequencyChange><Frequency dt:dt=""r8"">3312890</Frequency><Timestamp dt:dt=""r8"">27346332343</Timestamp><Current dt:dt=""r8"">0</Current><DateUtc dt:dt=""string"">2015-05-26T10:05:47Z</DateUtc></FrequencyChange></FrequencyChanges></Clock>\n",Tweet_Rating_English_Right-42-1,59.822,1.0.0.326,English,1,Postgraduate student,1577203446,Professional,2.0.10.353,2.0.10.353,05-26-2015,26/05/2015 10:05,11:05:47,female,2.0.10.248,4,4,1,4,BlockProc,BlockList,45,0,,1,1,2,c,21,2,2,,,,,,,TrialProc,750348,Yes,3947,754295,2,2921,757231,3,3467,760719,computer,822,761551,TrialList,Teaching is a warming light.,,21,1,45
