ExperimentName,Subject,Session,Age,Clock.Information,DataFile.Basename,Display.RefreshRate,ExperimentVersion,FirstLanguage,Group,Occupation,RandomSeed,RuntimeCapabilities,RuntimeVersion,RuntimeVersionExpected,SessionDate,SessionStartDateTimeUtc,SessionTime,Sex,StudioVersion,Block,BlockList,BlockList.Cycle,BlockList.Sample,Procedure[Block],Running[Block],Trial,CrossLangDiff,Expression,Form_Form_Chinese,Form_Form_English,Form_Form_Spanish,HumanORComputer,MetaphorID,Novelty_Chinese,Novelty_European,PostBlockList,PostBlockList.Cycle,PostBlockList.Sample,PracList,PracList.Cycle,PracList.Sample,Procedure[Trial],Q1.OnsetTime,Q1.RESP,Q1.RT,Q1.RTTime,Q2.RESP,Q2.RT,Q2.RTTime,Q3.RESP,Q3.RT,Q3.RTTime,Q4.RESP,Q4.RT,Q4.RTTime,Running[Trial],Stimuli,TextInput.RESP,TrialList,TrialList.Cycle,TrialList.Sample
Tweet_Rating_Spanish_Right,1,1,18-30,"<?xml version=""1.0""?>\n<Clock xmlns:dt=""urn:schemas-microsoft-com:datatypes""><Description dt:dt=""string"">E-Prime Primary Realtime Clock</Description><StartTime><Timestamp dt:dt=""int"">0</Timestamp><DateUtc dt:dt=""string"">2015-05-18T21:00:54Z</DateUtc></StartTime><FrequencyChanges><FrequencyChange><Frequency dt:dt=""r8"">2336240</Frequency><Timestamp dt:dt=""r8"">1019809309</Timestamp><Current dt:dt=""r8"">0</Current><DateUtc dt:dt=""string"">2015-05-18T21:00:54Z</DateUtc></FrequencyChange></FrequencyChanges></Clock>\n",Tweet_Rating_Spanish_Right-1-1,59.796,1.0.0.374,Español,1,Estudiante de posgrado,1020274971,Professional,2.0.10.353,2.0.10.353,05-18-2015,18/05/2015 21:00,23:00:54,femenino ,2.0.10.248,4,4,1,4,BlockProc,BlockList,1,0,,2,3,2,c,36,1,1,,,,,,,TrialProc,284084,No,1845,285929,,0,0,1,2941,288898,computer,936,289853,TrialList,El amor es una música relajante.,,36,1,1
Tweet_Rating_Spanish_Right,1,1,18-30,"<?xml version=""1.0""?>\n<Clock xmlns:dt=""urn:schemas-microsoft-com:datatypes""><Description dt:dt=""string"">E-Prime Primary Realtime Clock</Description><StartTime><Timestamp dt:dt=""int"">0</Timestamp><DateUtc dt:dt=""string"">2015-05-18T21:00:54Z</DateUtc></StartTime><FrequencyChanges><FrequencyChange><Frequency dt:dt=""r8"">2336240</Frequency><Timestamp dt:dt=""r8"">1019809309</Timestamp><Current dt:dt=""r8"">0</Current><DateUtc dt:dt=""string"">2015-05-18T21:00:54Z</DateUtc></FrequencyChange></FrequencyChanges></Clock>\n",Tweet_Rating_Spanish_Right-1-1,59.796,1.0.0.374,Español,1,Estudiante de posgrado,1020274971,Professional,2.0.10.353,2.0.10.353,05-18-2015,18/05/2015 21:00,23:00:54,femenino ,2.0.10.248,4,4,1,4,BlockProc,BlockList,2,0,,1,3,2,h,57,2,2,,,,,,,TrialProc,294520,Yes,3865,298385,3,1826,300242,5,1787,302060,human,1252,303331,TrialList,La indecisión es un remolino en calma.,,57,1,2
Tweet_Rating_Spanish_Right,1,1,18-30,"<?xml version=""1.0""?>\n<Clock xmlns:dt=""urn:schemas-microsoft-com:datatypes""><Description dt:dt=""string"">E-Prime Primary Realtime Clock</Description><StartTime><Timestamp dt:dt=""int"">0</Timestamp><DateUtc dt:dt=""string"">2015-05-18T21:00:54Z</DateUtc></StartTime><FrequencyChanges><FrequencyChange><Frequency dt:dt=""r8"">2336240</Frequency><Timestamp dt:dt=""r8"">1019809309</Timestamp><Current dt:dt=""r8"">0</Current><DateUtc dt:dt=""string"">2015-05-18T21:00:54Z</DateUtc></FrequencyChange></FrequencyChanges></Clock>\n",Tweet_Rating_Spanish_Right-1-1,59.796,1.0.0.374,Español,1,Estudiante de posgrado,1020274971,Professional,2.0.10.353,2.0.10.353,05-18-2015,18/05/2015 21:00,23:00:54,femenino ,2.0.10.248,4,4,1,4,BlockProc,BlockList,3,1,,1,2,2,c,9,3,2,,,,,,,TrialProc,308735,No,4073,312808,,0,0,1,997,313829,computer,1144,314996,TrialList,El poder es un fuego reconfortante.,,9,1,3
Tweet_Rating_Spanish_Right,1,1,18-30,"<?xml version=""1.0""?>\n<Clock xmlns:dt=""urn:schemas-microsoft-com:datatypes""><Description dt:dt=""string"">E-Prime Primary Realtime Clock</Description><StartTime><Timestamp dt:dt=""int"">0</Timestamp><DateUtc dt:dt=""string"">2015-05-18T21:00:54Z</DateUtc></StartTime><FrequencyChanges><FrequencyChange><Frequency dt:dt=""r8"">2336240</Frequency><Timestamp dt:dt=""r8"">1019809309</Timestamp><Current dt:dt=""r8"">0</Current><DateUtc dt:dt=""string"">2015-05-18T21:00:54Z</DateUtc></FrequencyChange></FrequencyChanges></Clock>\n",Tweet_Rating_Spanish_Right-1-1,59.796,1.0.0.374,Español,1,Estudiante de posgrado,1020274971,Professional,2.0.10.353,2.0.10.353,05-18-2015,18/05/2015 21:00,23:00:54,femenino ,2.0.10.248,4,4,1,4,BlockProc,BlockList,4,0,,2,2,2,c,25,2,2,,,,,,,TrialProc,319571,No,5516,325087,,0,0,2,1490,326597,computer,1340,327969,TrialList,La comida es una música agradable.,,25,1,4
Tweet_Rating_Spanish_Right,1,1,18-30,"<?xml version=""1.0""?>\n<Clock xmlns:dt=""urn:schemas-microsoft-com:datatypes""><Description dt:dt=""string"">E-Prime Primary Realtime Clock</Description><StartTime><Timestamp dt:dt=""int"">0</Timestamp><DateUtc dt:dt=""string"">2015-05-18T21:00:54Z</DateUtc></StartTime><FrequencyChanges><FrequencyChange><Frequency dt:dt=""r8"">2336240</Frequency><Timestamp dt:dt=""r8"">1019809309</Timestamp><Current dt:dt=""r8"">0</Current><DateUtc dt:dt=""string"">2015-05-18T21:00:54Z</DateUtc></FrequencyChange></FrequencyChanges></Clock>\n",Tweet_Rating_Spanish_Right-1-1,59.796,1.0.0.374,Español,1,Estudiante de posgrado,1020274971,Professional,2.0.10.353,2.0.10.353,05-18-2015,18/05/2015 21:00,23:00:54,femenino ,2.0.10.248,4,4,1,4,BlockProc,BlockList,5,1,,2,2,2,h,55,3,2,,,,,,,TrialProc,332381,Yes,2374,334755,2,1213,335986,3,1190,337200,human,2123,339354,TrialList,El sueño es un vasto océano.,,55,1,5
Tweet_Rating_Spanish_Right,1,1,18-30,"<?xml version=""1.0""?>\n<Clock xmlns:dt=""urn:schemas-microsoft-com:datatypes""><Description dt:dt=""string"">E-Prime Primary Realtime Clock</Description><StartTime><Timestamp dt:dt=""int"">0</Timestamp><DateUtc dt:dt=""string"">2015-05-18T21:00:54Z</DateUtc></StartTime><FrequencyChanges><FrequencyChange><Frequency dt:dt=""r8"">2336240</Frequency><Timestamp dt:dt=""r8"">1019809309</Timestamp><Current dt:dt=""r8"">0</Current><DateUtc dt:dt=""string"">2015-05-18T21:00:54Z</DateUtc></FrequencyChange></FrequencyChanges></Clock>\n",Tweet_Rating_Spanish_Right-1-1,59.796,1.0.0.374,Español,1,Estudiante de posgrado,1020274971,Professional,2.0.10.353,2.0.10.353,05-18-2015,18/05/2015 21:00,23:00:54,femenino ,2.0.10.248,4,4,1,4,BlockProc,BlockList,6,0,,1,2,2,c,5,2,2,,,,,,,TrialProc,344255,No,3297,347552,,0,0,2,1062,348645,computer,1148,349818,TrialList,La música es un fuego reconfortante.,,5,1,6
Tweet_Rating_Spanish_Right,1,1,18-30,"<?xml version=""1.0""?>\n<Clock xmlns:dt=""urn:schemas-microsoft-com:datatypes""><Description dt:dt=""string"">E-Prime Primary Realtime Clock</Description><StartTime><Timestamp dt:dt=""int"">0</Timestamp><DateUtc dt:dt=""string"">2015-05-18T21:00:54Z</DateUtc></StartTime><FrequencyChanges><FrequencyChange><Frequency dt:dt=""r8"">2336240</Frequency><Timestamp dt:dt=""r8"">1019809309</Timestamp><Current dt:dt=""r8"">0</Current><DateUtc dt:dt=""string"">2015-05-18T21:00:54Z</DateUtc></FrequencyChange></FrequencyChanges></Clock>\n",Tweet_Rating_Spanish_Right-1-1,59.796,1.0.0.374,Español,1,Estudiante de posgrado,1020274971,Professional,2.0.10.353,2.0.10.353,05-18-2015,18/05/2015 21:00,23:00:54,femenino ,2.0.10.248,4,4,1,4,BlockProc,BlockList,7,0,,1,2,3,h,56,2,2,,,,,,,TrialProc,354205,No,2499,356704,,0,0,1,978,357709,computer,918,358652,TrialList,La disciplina es un potente fertilizante.,,56,1,7
Tweet_Rating_Spanish_Right,1,1,18-30,"<?xml version=""1.0""?>\n<Clock xmlns:dt=""urn:schemas-microsoft-com:datatypes""><Description dt:dt=""string"">E-Prime Primary Realtime Clock</Description><StartTime><Timestamp dt:dt=""int"">0</Timestamp><DateUtc dt:dt=""string"">2015-05-18T21:00:54Z</DateUtc></StartTime><FrequencyChanges><FrequencyChange><Frequency dt:dt=""r8"">2336240</Frequency><Timestamp dt:dt=""r8"">1019809309</Timestamp><Current dt:dt=""r8"">0</Current><DateUtc dt:dt=""string"">2015-05-18T21:00:54Z</DateUtc></FrequencyChange></FrequencyChanges></Clock>\n",Tweet_Rating_Spanish_Right-1-1,59.796,1.0.0.374,Español,1,Estudiante de posgrado,1020274971,Professional,2.0.10.353,2.0.10.353,05-18-2015,18/05/2015 21:00,23:00:54,femenino ,2.0.10.248,4,4,1,4,BlockProc,BlockList,8,0,,3,2,2,c,37,1,1,,,,,,,TrialProc,365193,Yes,1887,367080,3,1581,368680,4,1775,370479,human,1367,371861,TrialList,El amor es una pintura hermosa.,,37,1,8
Tweet_Rating_Spanish_Right,1,1,18-30,"<?xml version=""1.0""?>\n<Clock xmlns:dt=""urn:schemas-microsoft-com:datatypes""><Description dt:dt=""string"">E-Prime Primary Realtime Clock</Description><StartTime><Timestamp dt:dt=""int"">0</Timestamp><DateUtc dt:dt=""string"">2015-05-18T21:00:54Z</DateUtc></StartTime><FrequencyChanges><FrequencyChange><Frequency dt:dt=""r8"">2336240</Frequency><Timestamp dt:dt=""r8"">1019809309</Timestamp><Current dt:dt=""r8"">0</Current><DateUtc dt:dt=""string"">2015-05-18T21:00:54Z</DateUtc></FrequencyChange></FrequencyChanges></Clock>\n",Tweet_Rating_Spanish_Right-1-1,59.796,1.0.0.374,Español,1,Estudiante de posgrado,1020274971,Professional,2.0.10.353,2.0.10.353,05-18-2015,18/05/2015 21:00,23:00:54,femenino ,2.0.10.248,4,4,1,4,BlockProc,BlockList,9,0,,1,1,2,c,32,2,2,,,,,,,TrialProc,376865,No,2917,379782,,0,0,1,818,380627,computer,1095,381740,TrialList,La tecnología es una luz cálida.,,32,1,9
Tweet_Rating_Spanish_Right,1,1,18-30,"<?xml version=""1.0""?>\n<Clock xmlns:dt=""urn:schemas-microsoft-com:datatypes""><Description dt:dt=""string"">E-Prime Primary Realtime Clock</Description><StartTime><Timestamp dt:dt=""int"">0</Timestamp><DateUtc dt:dt=""string"">2015-05-18T21:00:54Z</DateUtc></StartTime><FrequencyChanges><FrequencyChange><Frequency dt:dt=""r8"">2336240</Frequency><Timestamp dt:dt=""r8"">1019809309</Timestamp><Current dt:dt=""r8"">0</Current><DateUtc dt:dt=""string"">2015-05-18T21:00:54Z</DateUtc></FrequencyChange></FrequencyChanges></Clock>\n",Tweet_Rating_Spanish_Right-1-1,59.796,1.0.0.374,Español,1,Estudiante de posgrado,1020274971,Professional,2.0.10.353,2.0.10.353,05-18-2015,18/05/2015 21:00,23:00:54,femenino ,2.0.10.248,4,4,1,4,BlockProc,BlockList,10,0,,1,2,1,c,45,3,3,,,,,,,TrialProc,392134,No,3135,395269,,0,0,1,790,396085,computer,766,396880,TrialList,La seguridad es una energía vigorizante.,,45,1,10
Tweet_Rating_Spanish_Right,1,1,18-30,"<?xml version=""1.0""?>\n<Clock xmlns:dt=""urn:schemas-microsoft-com:datatypes""><Description dt:dt=""string"">E-Prime Primary Realtime Clock</Description><StartTime><Timestamp dt:dt=""int"">0</Timestamp><DateUtc dt:dt=""string"">2015-05-18T21:00:54Z</DateUtc></StartTime><FrequencyChanges><FrequencyChange><Frequency dt:dt=""r8"">2336240</Frequency><Timestamp dt:dt=""r8"">1019809309</Timestamp><Current dt:dt=""r8"">0</Current><DateUtc dt:dt=""string"">2015-05-18T21:00:54Z</DateUtc></FrequencyChange></FrequencyChanges></Clock>\n",Tweet_Rating_Spanish_Right-1-1,59.796,1.0.0.374,Español,1,Estudiante de posgrado,1020274971,Professional,2.0.10.353,2.0.10.353,05-18-2015,18/05/2015 21:00,23:00:54,femenino ,2.0.10.248,4,4,1,4,BlockProc,BlockList,11,0,,1,3,2,c,3,3,3,,,,,,,TrialProc,401265,No,1888,403153,,0,0,1,519,403690,computer,878,404584,TrialList,los negocios son agua pura.,,3,1,11
Tweet_Rating_Spanish_Right,1,1,18-30,"<?xml version=""1.0""?>\n<Clock xmlns:dt=""urn:schemas-microsoft-com:datatypes""><Description dt:dt=""string"">E-Prime Primary Realtime Clock</Description><StartTime><Timestamp dt:dt=""int"">0</Timestamp><DateUtc dt:dt=""string"">2015-05-18T21:00:54Z</DateUtc></StartTime><FrequencyChanges><FrequencyChange><Frequency dt:dt=""r8"">2336240</Frequency><Timestamp dt:dt=""r8"">1019809309</Timestamp><Current dt:dt=""r8"">0</Current><DateUtc dt:dt=""string"">2015-05-18T21:00:54Z</DateUtc></FrequencyChange></FrequencyChanges></Clock>\n",Tweet_Rating_Spanish_Right-1-1,59.796,1.0.0.374,Español,1,Estudiante de posgrado,1020274971,Professional,2.0.10.353,2.0.10.353,05-18-2015,18/05/2015 21:00,23:00:54,femenino ,2.0.10.248,4,4,1,4,BlockProc,BlockList,12,1,,2,3,2,c,23,3,2,,,,,,,TrialProc,410028,Yes,2827,412855,3,1526,414397,4,1820,416246,human,1461,417727,TrialList,La verdad es una música relajante.,,23,1,12
Tweet_Rating_Spanish_Right,1,1,18-30,"<?xml version=""1.0""?>\n<Clock xmlns:dt=""urn:schemas-microsoft-com:datatypes""><Description dt:dt=""string"">E-Prime Primary Realtime Clock</Description><StartTime><Timestamp dt:dt=""int"">0</Timestamp><DateUtc dt:dt=""string"">2015-05-18T21:00:54Z</DateUtc></StartTime><FrequencyChanges><FrequencyChange><Frequency dt:dt=""r8"">2336240</Frequency><Timestamp dt:dt=""r8"">1019809309</Timestamp><Current dt:dt=""r8"">0</Current><DateUtc dt:dt=""string"">2015-05-18T21:00:54Z</DateUtc></FrequencyChange></FrequencyChanges></Clock>\n",Tweet_Rating_Spanish_Right-1-1,59.796,1.0.0.374,Español,1,Estudiante de posgrado,1020274971,Professional,2.0.10.353,2.0.10.353,05-18-2015,18/05/2015 21:00,23:00:54,femenino ,2.0.10.248,4,4,1,4,BlockProc,BlockList,13,0,,1,2,3,c,31,2,2,,,,,,,TrialProc,422487,No,2856,425343,,0,0,1,646,426009,computer,832,426864,TrialList,Las canciones son un fuego reconfortante.,,31,1,13
Tweet_Rating_Spanish_Right,1,1,18-30,"<?xml version=""1.0""?>\n<Clock xmlns:dt=""urn:schemas-microsoft-com:datatypes""><Description dt:dt=""string"">E-Prime Primary Realtime Clock</Description><StartTime><Timestamp dt:dt=""int"">0</Timestamp><DateUtc dt:dt=""string"">2015-05-18T21:00:54Z</DateUtc></StartTime><FrequencyChanges><FrequencyChange><Frequency dt:dt=""r8"">2336240</Frequency><Timestamp dt:dt=""r8"">1019809309</Timestamp><Current dt:dt=""r8"">0</Current><DateUtc dt:dt=""string"">2015-05-18T21:00:54Z</DateUtc></FrequencyChange></FrequencyChanges></Clock>\n",Tweet_Rating_Spanish_Right-1-1,59.796,1.0.0.374,Español,1,Estudiante de posgrado,1020274971,Professional,2.0.10.353,2.0.10.353,05-18-2015,18/05/2015 21:00,23:00:54,femenino ,2.0.10.248,4,4,1,4,BlockProc,BlockList,14,0,,1,1,2,c,21,2,2,,,,,,,TrialProc,431216,Yes,1545,432761,3,1832,434620,4,2033,436678,computer,1637,438339,TrialList,La enseñanza es una luz cálida.,,21,1,14
Tweet_Rating_Spanish_Right,1,1,18-30,"<?xml version=""1.0""?>\n<Clock xmlns:dt=""urn:schemas-microsoft-com:datatypes""><Description dt:dt=""string"">E-Prime Primary Realtime Clock</Description><StartTime><Timestamp dt:dt=""int"">0</Timestamp><DateUtc dt:dt=""string"">2015-05-18T21:00:54Z</DateUtc></StartTime><FrequencyChanges><FrequencyChange><Frequency dt:dt=""r8"">2336240</Frequency><Timestamp dt:dt=""r8"">1019809309</Timestamp><Current dt:dt=""r8"">0</Current><DateUtc dt:dt=""string"">2015-05-18T21:00:54Z</DateUtc></FrequencyChange></FrequencyChanges></Clock>\n",Tweet_Rating_Spanish_Right-1-1,59.796,1.0.0.374,Español,1,Estudiante de posgrado,1020274971,Professional,2.0.10.353,2.0.10.353,05-18-2015,18/05/2015 21:00,23:00:54,femenino ,2.0.10.248,4,4,1,4,BlockProc,BlockList,15,0,,1,2,2,c,1,2,2,,,,,,,TrialProc,444361,Yes,3017,447378,3,1205,448610,4,1318,449943,human,2177,452140,TrialList,El habla es una canción reconfortante.,,1,1,15
Tweet_Rating_Spanish_Right,1,1,18-30,"<?xml version=""1.0""?>\n<Clock xmlns:dt=""urn:schemas-microsoft-com:datatypes""><Description dt:dt=""string"">E-Prime Primary Realtime Clock</Description><StartTime><Timestamp dt:dt=""int"">0</Timestamp><DateUtc dt:dt=""string"">2015-05-18T21:00:54Z</DateUtc></StartTime><FrequencyChanges><FrequencyChange><Frequency dt:dt=""r8"">2336240</Frequency><Timestamp dt:dt=""r8"">1019809309</Timestamp><Current dt:dt=""r8"">0</Current><DateUtc dt:dt=""string"">2015-05-18T21:00:54Z</DateUtc></FrequencyChange></FrequencyChanges></Clock>\n",Tweet_Rating_Spanish_Right-1-1,59.796,1.0.0.374,Español,1,Estudiante de posgrado,1020274971,Professional,2.0.10.353,2.0.10.353,05-18-2015,18/05/2015 21:00,23:00:54,femenino ,2.0.10.248,4,4,1,4,BlockProc,BlockList,16,0,,1,1,2,c,10,2,2,,,,,,,TrialProc,460215,No,3391,463606,,0,0,1,686,464312,human,2420,466749,TrialList,La seguridad es una luz cálida.,,10,1,16
Tweet_Rating_Spanish_Right,1,1,18-30,"<?xml version=""1.0""?>\n<Clock xmlns:dt=""urn:schemas-microsoft-com:datatypes""><Description dt:dt=""string"">E-Prime Primary Realtime Clock</Description><StartTime><Timestamp dt:dt=""int"">0</Timestamp><DateUtc dt:dt=""string"">2015-05-18T21:00:54Z</DateUtc></StartTime><FrequencyChanges><FrequencyChange><Frequency dt:dt=""r8"">2336240</Frequency><Timestamp dt:dt=""r8"">1019809309</Timestamp><Current dt:dt=""r8"">0</Current><DateUtc dt:dt=""string"">2015-05-18T21:00:54Z</DateUtc></FrequencyChange></FrequencyChanges></Clock>\n",Tweet_Rating_Spanish_Right-1-1,59.796,1.0.0.374,Español,1,Estudiante de posgrado,1020274971,Professional,2.0.10.353,2.0.10.353,05-18-2015,18/05/2015 21:00,23:00:54,femenino ,2.0.10.248,4,4,1,4,BlockProc,BlockList,17,0,,2,3,1,c,39,3,3,,,,,,,TrialProc,473443,No,2116,475559,,0,0,1,752,476335,computer,977,477330,TrialList,El gobierno es una pintura encantadora.,,39,1,17
Tweet_Rating_Spanish_Right,1,1,18-30,"<?xml version=""1.0""?>\n<Clock xmlns:dt=""urn:schemas-microsoft-com:datatypes""><Description dt:dt=""string"">E-Prime Primary Realtime Clock</Description><StartTime><Timestamp dt:dt=""int"">0</Timestamp><DateUtc dt:dt=""string"">2015-05-18T21:00:54Z</DateUtc></StartTime><FrequencyChanges><FrequencyChange><Frequency dt:dt=""r8"">2336240</Frequency><Timestamp dt:dt=""r8"">1019809309</Timestamp><Current dt:dt=""r8"">0</Current><DateUtc dt:dt=""string"">2015-05-18T21:00:54Z</DateUtc></FrequencyChange></FrequencyChanges></Clock>\n",Tweet_Rating_Spanish_Right-1-1,59.796,1.0.0.374,Español,1,Estudiante de posgrado,1020274971,Professional,2.0.10.353,2.0.10.353,05-18-2015,18/05/2015 21:00,23:00:54,femenino ,2.0.10.248,4,4,1,4,BlockProc,BlockList,18,0,,1,2,2,c,16,2,2,,,,,,,TrialProc,486086,Yes,2174,488260,2,1088,489364,3,1316,490696,human,1590,492308,TrialList,El poder es una luz cálida.,,16,1,18
Tweet_Rating_Spanish_Right,1,1,18-30,"<?xml version=""1.0""?>\n<Clock xmlns:dt=""urn:schemas-microsoft-com:datatypes""><Description dt:dt=""string"">E-Prime Primary Realtime Clock</Description><StartTime><Timestamp dt:dt=""int"">0</Timestamp><DateUtc dt:dt=""string"">2015-05-18T21:00:54Z</DateUtc></StartTime><FrequencyChanges><FrequencyChange><Frequency dt:dt=""r8"">2336240</Frequency><Timestamp dt:dt=""r8"">1019809309</Timestamp><Current dt:dt=""r8"">0</Current><DateUtc dt:dt=""string"">2015-05-18T21:00:54Z</DateUtc></FrequencyChange></FrequencyChanges></Clock>\n",Tweet_Rating_Spanish_Right-1-1,59.796,1.0.0.374,Español,1,Estudiante de posgrado,1020274971,Professional,2.0.10.353,2.0.10.353,05-18-2015,18/05/2015 21:00,23:00:54,femenino ,2.0.10.248,4,4,1,4,BlockProc,BlockList,19,1,,2,3,2,c,50,3,1,,,,,,,TrialProc,496605,Yes,1881,498486,3,1614,500125,5,1477,501627,human,1066,502721,TrialList,La verdad es una belleza impresionante.,,50,1,19
Tweet_Rating_Spanish_Right,1,1,18-30,"<?xml version=""1.0""?>\n<Clock xmlns:dt=""urn:schemas-microsoft-com:datatypes""><Description dt:dt=""string"">E-Prime Primary Realtime Clock</Description><StartTime><Timestamp dt:dt=""int"">0</Timestamp><DateUtc dt:dt=""string"">2015-05-18T21:00:54Z</DateUtc></StartTime><FrequencyChanges><FrequencyChange><Frequency dt:dt=""r8"">2336240</Frequency><Timestamp dt:dt=""r8"">1019809309</Timestamp><Current dt:dt=""r8"">0</Current><DateUtc dt:dt=""string"">2015-05-18T21:00:54Z</DateUtc></FrequencyChange></FrequencyChanges></Clock>\n",Tweet_Rating_Spanish_Right-1-1,59.796,1.0.0.374,Español,1,Estudiante de posgrado,1020274971,Professional,2.0.10.353,2.0.10.353,05-18-2015,18/05/2015 21:00,23:00:54,femenino ,2.0.10.248,4,4,1,4,BlockProc,BlockList,20,0,,2,2,3,c,42,2,2,,,,,,,TrialProc,507642,Yes,2957,510599,3,1084,511703,5,1493,513216,human,1005,514249,TrialList,La escritura es una curación calmante.,,42,1,20
Tweet_Rating_Spanish_Right,1,1,18-30,"<?xml version=""1.0""?>\n<Clock xmlns:dt=""urn:schemas-microsoft-com:datatypes""><Description dt:dt=""string"">E-Prime Primary Realtime Clock</Description><StartTime><Timestamp dt:dt=""int"">0</Timestamp><DateUtc dt:dt=""string"">2015-05-18T21:00:54Z</DateUtc></StartTime><FrequencyChanges><FrequencyChange><Frequency dt:dt=""r8"">2336240</Frequency><Timestamp dt:dt=""r8"">1019809309</Timestamp><Current dt:dt=""r8"">0</Current><DateUtc dt:dt=""string"">2015-05-18T21:00:54Z</DateUtc></FrequencyChange></FrequencyChanges></Clock>\n",Tweet_Rating_Spanish_Right-1-1,59.796,1.0.0.374,Español,1,Estudiante de posgrado,1020274971,Professional,2.0.10.353,2.0.10.353,05-18-2015,18/05/2015 21:00,23:00:54,femenino ,2.0.10.248,4,4,1,4,BlockProc,BlockList,21,1,,1,3,2,c,40,3,2,,,,,,,TrialProc,518847,No,3798,522645,,0,0,2,901,523561,human,1841,525420,TrialList,El dolor es una belleza atractiva.,,40,1,21
Tweet_Rating_Spanish_Right,1,1,18-30,"<?xml version=""1.0""?>\n<Clock xmlns:dt=""urn:schemas-microsoft-com:datatypes""><Description dt:dt=""string"">E-Prime Primary Realtime Clock</Description><StartTime><Timestamp dt:dt=""int"">0</Timestamp><DateUtc dt:dt=""string"">2015-05-18T21:00:54Z</DateUtc></StartTime><FrequencyChanges><FrequencyChange><Frequency dt:dt=""r8"">2336240</Frequency><Timestamp dt:dt=""r8"">1019809309</Timestamp><Current dt:dt=""r8"">0</Current><DateUtc dt:dt=""string"">2015-05-18T21:00:54Z</DateUtc></FrequencyChange></FrequencyChanges></Clock>\n",Tweet_Rating_Spanish_Right-1-1,59.796,1.0.0.374,Español,1,Estudiante de posgrado,1020274971,Professional,2.0.10.353,2.0.10.353,05-18-2015,18/05/2015 21:00,23:00:54,femenino ,2.0.10.248,4,4,1,4,BlockProc,BlockList,22,0,,2,1,2,h,52,1,1,,,,,,,TrialProc,532225,Yes,2853,535078,3,1717,536819,5,1851,538692,human,1000,539714,TrialList,El peligro es una especia picante.,,52,1,22
Tweet_Rating_Spanish_Right,1,1,18-30,"<?xml version=""1.0""?>\n<Clock xmlns:dt=""urn:schemas-microsoft-com:datatypes""><Description dt:dt=""string"">E-Prime Primary Realtime Clock</Description><StartTime><Timestamp dt:dt=""int"">0</Timestamp><DateUtc dt:dt=""string"">2015-05-18T21:00:54Z</DateUtc></StartTime><FrequencyChanges><FrequencyChange><Frequency dt:dt=""r8"">2336240</Frequency><Timestamp dt:dt=""r8"">1019809309</Timestamp><Current dt:dt=""r8"">0</Current><DateUtc dt:dt=""string"">2015-05-18T21:00:54Z</DateUtc></FrequencyChange></FrequencyChanges></Clock>\n",Tweet_Rating_Spanish_Right-1-1,59.796,1.0.0.374,Español,1,Estudiante de posgrado,1020274971,Professional,2.0.10.353,2.0.10.353,05-18-2015,18/05/2015 21:00,23:00:54,femenino ,2.0.10.248,4,4,1,4,BlockProc,BlockList,23,0,,2,2,2,h,58,2,2,,,,,,,TrialProc,544701,Yes,1907,546608,3,1068,547692,5,1862,549573,human,1036,550637,TrialList,La historia es un espejo agrietado.,,58,1,23
Tweet_Rating_Spanish_Right,1,1,18-30,"<?xml version=""1.0""?>\n<Clock xmlns:dt=""urn:schemas-microsoft-com:datatypes""><Description dt:dt=""string"">E-Prime Primary Realtime Clock</Description><StartTime><Timestamp dt:dt=""int"">0</Timestamp><DateUtc dt:dt=""string"">2015-05-18T21:00:54Z</DateUtc></StartTime><FrequencyChanges><FrequencyChange><Frequency dt:dt=""r8"">2336240</Frequency><Timestamp dt:dt=""r8"">1019809309</Timestamp><Current dt:dt=""r8"">0</Current><DateUtc dt:dt=""string"">2015-05-18T21:00:54Z</DateUtc></FrequencyChange></FrequencyChanges></Clock>\n",Tweet_Rating_Spanish_Right-1-1,59.796,1.0.0.374,Español,1,Estudiante de posgrado,1020274971,Professional,2.0.10.353,2.0.10.353,05-18-2015,18/05/2015 21:00,23:00:54,femenino ,2.0.10.248,4,4,1,4,BlockProc,BlockList,24,0,,2,1,2,c,19,3,3,,,,,,,TrialProc,555437,No,5916,561353,,0,0,1,1462,562836,computer,690,563553,TrialList,El desorden es un sueño tranquilo.,,19,1,24
Tweet_Rating_Spanish_Right,1,1,18-30,"<?xml version=""1.0""?>\n<Clock xmlns:dt=""urn:schemas-microsoft-com:datatypes""><Description dt:dt=""string"">E-Prime Primary Realtime Clock</Description><StartTime><Timestamp dt:dt=""int"">0</Timestamp><DateUtc dt:dt=""string"">2015-05-18T21:00:54Z</DateUtc></StartTime><FrequencyChanges><FrequencyChange><Frequency dt:dt=""r8"">2336240</Frequency><Timestamp dt:dt=""r8"">1019809309</Timestamp><Current dt:dt=""r8"">0</Current><DateUtc dt:dt=""string"">2015-05-18T21:00:54Z</DateUtc></FrequencyChange></FrequencyChanges></Clock>\n",Tweet_Rating_Spanish_Right-1-1,59.796,1.0.0.374,Español,1,Estudiante de posgrado,1020274971,Professional,2.0.10.353,2.0.10.353,05-18-2015,18/05/2015 21:00,23:00:54,femenino ,2.0.10.248,4,4,1,4,BlockProc,BlockList,25,0,,2,2,3,c,13,2,2,,,,,,,TrialProc,567662,No,2507,570169,,0,0,1,679,570866,computer,792,571682,TrialList,La vida es un vino atractivo.,,13,1,25
Tweet_Rating_Spanish_Right,1,1,18-30,"<?xml version=""1.0""?>\n<Clock xmlns:dt=""urn:schemas-microsoft-com:datatypes""><Description dt:dt=""string"">E-Prime Primary Realtime Clock</Description><StartTime><Timestamp dt:dt=""int"">0</Timestamp><DateUtc dt:dt=""string"">2015-05-18T21:00:54Z</DateUtc></StartTime><FrequencyChanges><FrequencyChange><Frequency dt:dt=""r8"">2336240</Frequency><Timestamp dt:dt=""r8"">1019809309</Timestamp><Current dt:dt=""r8"">0</Current><DateUtc dt:dt=""string"">2015-05-18T21:00:54Z</DateUtc></FrequencyChange></FrequencyChanges></Clock>\n",Tweet_Rating_Spanish_Right-1-1,59.796,1.0.0.374,Español,1,Estudiante de posgrado,1020274971,Professional,2.0.10.353,2.0.10.353,05-18-2015,18/05/2015 21:00,23:00:54,femenino ,2.0.10.248,4,4,1,4,BlockProc,BlockList,26,0,,2,3,3,c,24,1,1,,,,,,,TrialProc,580623,No,3278,583901,,0,0,1,720,584637,computer,692,585345,TrialList,El matrimonio es un infierno caliente.,,24,1,26
Tweet_Rating_Spanish_Right,1,1,18-30,"<?xml version=""1.0""?>\n<Clock xmlns:dt=""urn:schemas-microsoft-com:datatypes""><Description dt:dt=""string"">E-Prime Primary Realtime Clock</Description><StartTime><Timestamp dt:dt=""int"">0</Timestamp><DateUtc dt:dt=""string"">2015-05-18T21:00:54Z</DateUtc></StartTime><FrequencyChanges><FrequencyChange><Frequency dt:dt=""r8"">2336240</Frequency><Timestamp dt:dt=""r8"">1019809309</Timestamp><Current dt:dt=""r8"">0</Current><DateUtc dt:dt=""string"">2015-05-18T21:00:54Z</DateUtc></FrequencyChange></FrequencyChanges></Clock>\n",Tweet_Rating_Spanish_Right-1-1,59.796,1.0.0.374,Español,1,Estudiante de posgrado,1020274971,Professional,2.0.10.353,2.0.10.353,05-18-2015,18/05/2015 21:00,23:00:54,femenino ,2.0.10.248,4,4,1,4,BlockProc,BlockList,27,1,,2,3,2,c,2,3,2,,,,,,,TrialProc,590356,Yes,2620,592976,3,1431,594429,5,2971,597424,human,1432,598878,TrialList,La religión es una música relajante.,,2,1,27
Tweet_Rating_Spanish_Right,1,1,18-30,"<?xml version=""1.0""?>\n<Clock xmlns:dt=""urn:schemas-microsoft-com:datatypes""><Description dt:dt=""string"">E-Prime Primary Realtime Clock</Description><StartTime><Timestamp dt:dt=""int"">0</Timestamp><DateUtc dt:dt=""string"">2015-05-18T21:00:54Z</DateUtc></StartTime><FrequencyChanges><FrequencyChange><Frequency dt:dt=""r8"">2336240</Frequency><Timestamp dt:dt=""r8"">1019809309</Timestamp><Current dt:dt=""r8"">0</Current><DateUtc dt:dt=""string"">2015-05-18T21:00:54Z</DateUtc></FrequencyChange></FrequencyChanges></Clock>\n",Tweet_Rating_Spanish_Right-1-1,59.796,1.0.0.374,Español,1,Estudiante de posgrado,1020274971,Professional,2.0.10.353,2.0.10.353,05-18-2015,18/05/2015 21:00,23:00:54,femenino ,2.0.10.248,4,4,1,4,BlockProc,BlockList,28,0,,1,1,2,c,43,3,3,,,,,,,TrialProc,603851,No,3216,607067,,0,0,1,479,607575,computer,884,608481,TrialList,La enfermedad es una luz cálida.,,43,1,28
Tweet_Rating_Spanish_Right,1,1,18-30,"<?xml version=""1.0""?>\n<Clock xmlns:dt=""urn:schemas-microsoft-com:datatypes""><Description dt:dt=""string"">E-Prime Primary Realtime Clock</Description><StartTime><Timestamp dt:dt=""int"">0</Timestamp><DateUtc dt:dt=""string"">2015-05-18T21:00:54Z</DateUtc></StartTime><FrequencyChanges><FrequencyChange><Frequency dt:dt=""r8"">2336240</Frequency><Timestamp dt:dt=""r8"">1019809309</Timestamp><Current dt:dt=""r8"">0</Current><DateUtc dt:dt=""string"">2015-05-18T21:00:54Z</DateUtc></FrequencyChange></FrequencyChanges></Clock>\n",Tweet_Rating_Spanish_Right-1-1,59.796,1.0.0.374,Español,1,Estudiante de posgrado,1020274971,Professional,2.0.10.353,2.0.10.353,05-18-2015,18/05/2015 21:00,23:00:54,femenino ,2.0.10.248,4,4,1,4,BlockProc,BlockList,29,0,,2,3,1,c,14,2,2,,,,,,,TrialProc,612798,Yes,2589,615387,2,966,616373,3,1282,617676,computer,1322,619020,TrialList,El lenguaje es un amor tierno.,,14,1,29
Tweet_Rating_Spanish_Right,1,1,18-30,"<?xml version=""1.0""?>\n<Clock xmlns:dt=""urn:schemas-microsoft-com:datatypes""><Description dt:dt=""string"">E-Prime Primary Realtime Clock</Description><StartTime><Timestamp dt:dt=""int"">0</Timestamp><DateUtc dt:dt=""string"">2015-05-18T21:00:54Z</DateUtc></StartTime><FrequencyChanges><FrequencyChange><Frequency dt:dt=""r8"">2336240</Frequency><Timestamp dt:dt=""r8"">1019809309</Timestamp><Current dt:dt=""r8"">0</Current><DateUtc dt:dt=""string"">2015-05-18T21:00:54Z</DateUtc></FrequencyChange></FrequencyChanges></Clock>\n",Tweet_Rating_Spanish_Right-1-1,59.796,1.0.0.374,Español,1,Estudiante de posgrado,1020274971,Professional,2.0.10.353,2.0.10.353,05-18-2015,18/05/2015 21:00,23:00:54,femenino ,2.0.10.248,4,4,1,4,BlockProc,BlockList,30,0,,2,1,1,c,7,1,1,,,,,,,TrialProc,623368,Yes,1693,625061,3,986,626076,5,869,626962,human,1067,628047,TrialList,El lenguaje es un arte célebre .,,7,1,30
Tweet_Rating_Spanish_Right,1,1,18-30,"<?xml version=""1.0""?>\n<Clock xmlns:dt=""urn:schemas-microsoft-com:datatypes""><Description dt:dt=""string"">E-Prime Primary Realtime Clock</Description><StartTime><Timestamp dt:dt=""int"">0</Timestamp><DateUtc dt:dt=""string"">2015-05-18T21:00:54Z</DateUtc></StartTime><FrequencyChanges><FrequencyChange><Frequency dt:dt=""r8"">2336240</Frequency><Timestamp dt:dt=""r8"">1019809309</Timestamp><Current dt:dt=""r8"">0</Current><DateUtc dt:dt=""string"">2015-05-18T21:00:54Z</DateUtc></FrequencyChange></FrequencyChanges></Clock>\n",Tweet_Rating_Spanish_Right-1-1,59.796,1.0.0.374,Español,1,Estudiante de posgrado,1020274971,Professional,2.0.10.353,2.0.10.353,05-18-2015,18/05/2015 21:00,23:00:54,femenino ,2.0.10.248,4,4,1,4,BlockProc,BlockList,31,0,,1,1,2,c,33,2,2,,,,,,,TrialProc,632381,No,2835,635216,,0,0,1,509,635750,computer,1358,637134,TrialList,La programación es un arte apreciado.,,33,1,31
Tweet_Rating_Spanish_Right,1,1,18-30,"<?xml version=""1.0""?>\n<Clock xmlns:dt=""urn:schemas-microsoft-com:datatypes""><Description dt:dt=""string"">E-Prime Primary Realtime Clock</Description><StartTime><Timestamp dt:dt=""int"">0</Timestamp><DateUtc dt:dt=""string"">2015-05-18T21:00:54Z</DateUtc></StartTime><FrequencyChanges><FrequencyChange><Frequency dt:dt=""r8"">2336240</Frequency><Timestamp dt:dt=""r8"">1019809309</Timestamp><Current dt:dt=""r8"">0</Current><DateUtc dt:dt=""string"">2015-05-18T21:00:54Z</DateUtc></FrequencyChange></FrequencyChanges></Clock>\n",Tweet_Rating_Spanish_Right-1-1,59.796,1.0.0.374,Español,1,Estudiante de posgrado,1020274971,Professional,2.0.10.353,2.0.10.353,05-18-2015,18/05/2015 21:00,23:00:54,femenino ,2.0.10.248,4,4,1,4,BlockProc,BlockList,32,1,,1,1,2,c,17,3,2,,,,,,,TrialProc,641930,No,1873,643803,,0,0,1,431,644251,computer,597,644869,TrialList,El diseño es una luz cálida.,,17,1,32
Tweet_Rating_Spanish_Right,1,1,18-30,"<?xml version=""1.0""?>\n<Clock xmlns:dt=""urn:schemas-microsoft-com:datatypes""><Description dt:dt=""string"">E-Prime Primary Realtime Clock</Description><StartTime><Timestamp dt:dt=""int"">0</Timestamp><DateUtc dt:dt=""string"">2015-05-18T21:00:54Z</DateUtc></StartTime><FrequencyChanges><FrequencyChange><Frequency dt:dt=""r8"">2336240</Frequency><Timestamp dt:dt=""r8"">1019809309</Timestamp><Current dt:dt=""r8"">0</Current><DateUtc dt:dt=""string"">2015-05-18T21:00:54Z</DateUtc></FrequencyChange></FrequencyChanges></Clock>\n",Tweet_Rating_Spanish_Right-1-1,59.796,1.0.0.374,Español,1,Estudiante de posgrado,1020274971,Professional,2.0.10.353,2.0.10.353,05-18-2015,18/05/2015 21:00,23:00:54,femenino ,2.0.10.248,4,4,1,4,BlockProc,BlockList,33,0,,2,1,1,c,8,3,3,,,,,,,TrialProc,649239,No,2937,652176,,0,0,1,833,653032,computer,1355,654406,TrialList,La guerra es un amor tierno.,,8,1,33
Tweet_Rating_Spanish_Right,1,1,18-30,"<?xml version=""1.0""?>\n<Clock xmlns:dt=""urn:schemas-microsoft-com:datatypes""><Description dt:dt=""string"">E-Prime Primary Realtime Clock</Description><StartTime><Timestamp dt:dt=""int"">0</Timestamp><DateUtc dt:dt=""string"">2015-05-18T21:00:54Z</DateUtc></StartTime><FrequencyChanges><FrequencyChange><Frequency dt:dt=""r8"">2336240</Frequency><Timestamp dt:dt=""r8"">1019809309</Timestamp><Current dt:dt=""r8"">0</Current><DateUtc dt:dt=""string"">2015-05-18T21:00:54Z</DateUtc></FrequencyChange></FrequencyChanges></Clock>\n",Tweet_Rating_Spanish_Right-1-1,59.796,1.0.0.374,Español,1,Estudiante de posgrado,1020274971,Professional,2.0.10.353,2.0.10.353,05-18-2015,18/05/2015 21:00,23:00:54,femenino ,2.0.10.248,4,4,1,4,BlockProc,BlockList,34,0,,2,1,1,c,12,1,1,,,,,,,TrialProc,658871,No,3211,662082,,0,0,2,1306,663405,human,1428,664848,TrialList,La vida es una comedia agradable.,,12,1,34
Tweet_Rating_Spanish_Right,1,1,18-30,"<?xml version=""1.0""?>\n<Clock xmlns:dt=""urn:schemas-microsoft-com:datatypes""><Description dt:dt=""string"">E-Prime Primary Realtime Clock</Description><StartTime><Timestamp dt:dt=""int"">0</Timestamp><DateUtc dt:dt=""string"">2015-05-18T21:00:54Z</DateUtc></StartTime><FrequencyChanges><FrequencyChange><Frequency dt:dt=""r8"">2336240</Frequency><Timestamp dt:dt=""r8"">1019809309</Timestamp><Current dt:dt=""r8"">0</Current><DateUtc dt:dt=""string"">2015-05-18T21:00:54Z</DateUtc></FrequencyChange></FrequencyChanges></Clock>\n",Tweet_Rating_Spanish_Right-1-1,59.796,1.0.0.374,Español,1,Estudiante de posgrado,1020274971,Professional,2.0.10.353,2.0.10.353,05-18-2015,18/05/2015 21:00,23:00:54,femenino ,2.0.10.248,4,4,1,4,BlockProc,BlockList,35,0,,2,1,2,c,20,3,3,,,,,,,TrialProc,669574,No,3527,673101,,0,0,1,530,673649,computer,756,674427,TrialList,La guerra es un amor apasionante.,,20,1,35
Tweet_Rating_Spanish_Right,1,1,18-30,"<?xml version=""1.0""?>\n<Clock xmlns:dt=""urn:schemas-microsoft-com:datatypes""><Description dt:dt=""string"">E-Prime Primary Realtime Clock</Description><StartTime><Timestamp dt:dt=""int"">0</Timestamp><DateUtc dt:dt=""string"">2015-05-18T21:00:54Z</DateUtc></StartTime><FrequencyChanges><FrequencyChange><Frequency dt:dt=""r8"">2336240</Frequency><Timestamp dt:dt=""r8"">1019809309</Timestamp><Current dt:dt=""r8"">0</Current><DateUtc dt:dt=""string"">2015-05-18T21:00:54Z</DateUtc></FrequencyChange></FrequencyChanges></Clock>\n",Tweet_Rating_Spanish_Right-1-1,59.796,1.0.0.374,Español,1,Estudiante de posgrado,1020274971,Professional,2.0.10.353,2.0.10.353,05-18-2015,18/05/2015 21:00,23:00:54,femenino ,2.0.10.248,4,4,1,4,BlockProc,BlockList,36,0,,2,2,2,h,60,1,1,,,,,,,TrialProc,679892,No,4610,684502,,0,0,2,2924,687449,human,1016,688484,TrialList,La educación es una linterna brillante.,,60,1,36
Tweet_Rating_Spanish_Right,1,1,18-30,"<?xml version=""1.0""?>\n<Clock xmlns:dt=""urn:schemas-microsoft-com:datatypes""><Description dt:dt=""string"">E-Prime Primary Realtime Clock</Description><StartTime><Timestamp dt:dt=""int"">0</Timestamp><DateUtc dt:dt=""string"">2015-05-18T21:00:54Z</DateUtc></StartTime><FrequencyChanges><FrequencyChange><Frequency dt:dt=""r8"">2336240</Frequency><Timestamp dt:dt=""r8"">1019809309</Timestamp><Current dt:dt=""r8"">0</Current><DateUtc dt:dt=""string"">2015-05-18T21:00:54Z</DateUtc></FrequencyChange></FrequencyChanges></Clock>\n",Tweet_Rating_Spanish_Right-1-1,59.796,1.0.0.374,Español,1,Estudiante de posgrado,1020274971,Professional,2.0.10.353,2.0.10.353,05-18-2015,18/05/2015 21:00,23:00:54,femenino ,2.0.10.248,4,4,1,4,BlockProc,BlockList,37,0,,2,1,1,h,54,1,1,,,,,,,TrialProc,692719,Yes,2705,695424,3,1672,697117,5,1388,698522,human,1389,699928,TrialList,El tiempo es un buen médico.,,54,1,37
Tweet_Rating_Spanish_Right,1,1,18-30,"<?xml version=""1.0""?>\n<Clock xmlns:dt=""urn:schemas-microsoft-com:datatypes""><Description dt:dt=""string"">E-Prime Primary Realtime Clock</Description><StartTime><Timestamp dt:dt=""int"">0</Timestamp><DateUtc dt:dt=""string"">2015-05-18T21:00:54Z</DateUtc></StartTime><FrequencyChanges><FrequencyChange><Frequency dt:dt=""r8"">2336240</Frequency><Timestamp dt:dt=""r8"">1019809309</Timestamp><Current dt:dt=""r8"">0</Current><DateUtc dt:dt=""string"">2015-05-18T21:00:54Z</DateUtc></FrequencyChange></FrequencyChanges></Clock>\n",Tweet_Rating_Spanish_Right-1-1,59.796,1.0.0.374,Español,1,Estudiante de posgrado,1020274971,Professional,2.0.10.353,2.0.10.353,05-18-2015,18/05/2015 21:00,23:00:54,femenino ,2.0.10.248,4,4,1,4,BlockProc,BlockList,38,0,,2,2,2,c,22,2,2,,,,,,,TrialProc,704208,Yes,3911,708119,1,1624,709762,2,1011,710788,computer,1626,712440,TrialList,La medicina es un amor tierno.,,22,1,38
Tweet_Rating_Spanish_Right,1,1,18-30,"<?xml version=""1.0""?>\n<Clock xmlns:dt=""urn:schemas-microsoft-com:datatypes""><Description dt:dt=""string"">E-Prime Primary Realtime Clock</Description><StartTime><Timestamp dt:dt=""int"">0</Timestamp><DateUtc dt:dt=""string"">2015-05-18T21:00:54Z</DateUtc></StartTime><FrequencyChanges><FrequencyChange><Frequency dt:dt=""r8"">2336240</Frequency><Timestamp dt:dt=""r8"">1019809309</Timestamp><Current dt:dt=""r8"">0</Current><DateUtc dt:dt=""string"">2015-05-18T21:00:54Z</DateUtc></FrequencyChange></FrequencyChanges></Clock>\n",Tweet_Rating_Spanish_Right-1-1,59.796,1.0.0.374,Español,1,Estudiante de posgrado,1020274971,Professional,2.0.10.353,2.0.10.353,05-18-2015,18/05/2015 21:00,23:00:54,femenino ,2.0.10.248,4,4,1,4,BlockProc,BlockList,39,1,,2,2,2,c,34,2,1,,,,,,,TrialProc,716784,Yes,2577,719361,2,881,720257,3,1422,721701,human,1119,722836,TrialList,El destino es un cielo precioso.,,34,1,39
Tweet_Rating_Spanish_Right,1,1,18-30,"<?xml version=""1.0""?>\n<Clock xmlns:dt=""urn:schemas-microsoft-com:datatypes""><Description dt:dt=""string"">E-Prime Primary Realtime Clock</Description><StartTime><Timestamp dt:dt=""int"">0</Timestamp><DateUtc dt:dt=""string"">2015-05-18T21:00:54Z</DateUtc></StartTime><FrequencyChanges><FrequencyChange><Frequency dt:dt=""r8"">2336240</Frequency><Timestamp dt:dt=""r8"">1019809309</Timestamp><Current dt:dt=""r8"">0</Current><DateUtc dt:dt=""string"">2015-05-18T21:00:54Z</DateUtc></FrequencyChange></FrequencyChanges></Clock>\n",Tweet_Rating_Spanish_Right-1-1,59.796,1.0.0.374,Español,1,Estudiante de posgrado,1020274971,Professional,2.0.10.353,2.0.10.353,05-18-2015,18/05/2015 21:00,23:00:54,femenino ,2.0.10.248,4,4,1,4,BlockProc,BlockList,40,0,,2,3,1,c,29,3,3,,,,,,,TrialProc,727136,No,1357,728493,,0,0,1,556,729080,computer,439,729548,TrialList,Los negocios son una música relajante.,,29,1,40
Tweet_Rating_Spanish_Right,1,1,18-30,"<?xml version=""1.0""?>\n<Clock xmlns:dt=""urn:schemas-microsoft-com:datatypes""><Description dt:dt=""string"">E-Prime Primary Realtime Clock</Description><StartTime><Timestamp dt:dt=""int"">0</Timestamp><DateUtc dt:dt=""string"">2015-05-18T21:00:54Z</DateUtc></StartTime><FrequencyChanges><FrequencyChange><Frequency dt:dt=""r8"">2336240</Frequency><Timestamp dt:dt=""r8"">1019809309</Timestamp><Current dt:dt=""r8"">0</Current><DateUtc dt:dt=""string"">2015-05-18T21:00:54Z</DateUtc></FrequencyChange></FrequencyChanges></Clock>\n",Tweet_Rating_Spanish_Right-1-1,59.796,1.0.0.374,Español,1,Estudiante de posgrado,1020274971,Professional,2.0.10.353,2.0.10.353,05-18-2015,18/05/2015 21:00,23:00:54,femenino ,2.0.10.248,4,4,1,4,BlockProc,BlockList,41,0,,2,1,2,c,28,2,2,,,,,,,TrialProc,733541,Yes,2610,736151,3,1458,737624,4,1938,739576,human,1127,740722,TrialList,El amor es un arco iris brillante.,,28,1,41
Tweet_Rating_Spanish_Right,1,1,18-30,"<?xml version=""1.0""?>\n<Clock xmlns:dt=""urn:schemas-microsoft-com:datatypes""><Description dt:dt=""string"">E-Prime Primary Realtime Clock</Description><StartTime><Timestamp dt:dt=""int"">0</Timestamp><DateUtc dt:dt=""string"">2015-05-18T21:00:54Z</DateUtc></StartTime><FrequencyChanges><FrequencyChange><Frequency dt:dt=""r8"">2336240</Frequency><Timestamp dt:dt=""r8"">1019809309</Timestamp><Current dt:dt=""r8"">0</Current><DateUtc dt:dt=""string"">2015-05-18T21:00:54Z</DateUtc></FrequencyChange></FrequencyChanges></Clock>\n",Tweet_Rating_Spanish_Right-1-1,59.796,1.0.0.374,Español,1,Estudiante de posgrado,1020274971,Professional,2.0.10.353,2.0.10.353,05-18-2015,18/05/2015 21:00,23:00:54,femenino ,2.0.10.248,4,4,1,4,BlockProc,BlockList,42,0,,1,3,3,h,59,2,2,,,,,,,TrialProc,745197,No,4248,749445,,0,0,1,842,750303,computer,917,751248,TrialList,La ira es una fría tormenta de nieve.,,59,1,42
Tweet_Rating_Spanish_Right,1,1,18-30,"<?xml version=""1.0""?>\n<Clock xmlns:dt=""urn:schemas-microsoft-com:datatypes""><Description dt:dt=""string"">E-Prime Primary Realtime Clock</Description><StartTime><Timestamp dt:dt=""int"">0</Timestamp><DateUtc dt:dt=""string"">2015-05-18T21:00:54Z</DateUtc></StartTime><FrequencyChanges><FrequencyChange><Frequency dt:dt=""r8"">2336240</Frequency><Timestamp dt:dt=""r8"">1019809309</Timestamp><Current dt:dt=""r8"">0</Current><DateUtc dt:dt=""string"">2015-05-18T21:00:54Z</DateUtc></FrequencyChange></FrequencyChanges></Clock>\n",Tweet_Rating_Spanish_Right-1-1,59.796,1.0.0.374,Español,1,Estudiante de posgrado,1020274971,Professional,2.0.10.353,2.0.10.353,05-18-2015,18/05/2015 21:00,23:00:54,femenino ,2.0.10.248,4,4,1,4,BlockProc,BlockList,43,0,,1,1,2,c,44,3,3,,,,,,,TrialProc,755499,No,2772,758271,,0,0,1,686,758977,computer,879,759873,TrialList,El movimiento de resistencia es una luz cálida.,,44,1,43
Tweet_Rating_Spanish_Right,1,1,18-30,"<?xml version=""1.0""?>\n<Clock xmlns:dt=""urn:schemas-microsoft-com:datatypes""><Description dt:dt=""string"">E-Prime Primary Realtime Clock</Description><StartTime><Timestamp dt:dt=""int"">0</Timestamp><DateUtc dt:dt=""string"">2015-05-18T21:00:54Z</DateUtc></StartTime><FrequencyChanges><FrequencyChange><Frequency dt:dt=""r8"">2336240</Frequency><Timestamp dt:dt=""r8"">1019809309</Timestamp><Current dt:dt=""r8"">0</Current><DateUtc dt:dt=""string"">2015-05-18T21:00:54Z</DateUtc></FrequencyChange></FrequencyChanges></Clock>\n",Tweet_Rating_Spanish_Right-1-1,59.796,1.0.0.374,Español,1,Estudiante de posgrado,1020274971,Professional,2.0.10.353,2.0.10.353,05-18-2015,18/05/2015 21:00,23:00:54,femenino ,2.0.10.248,4,4,1,4,BlockProc,BlockList,44,0,,1,2,2,h,51,1,1,,,,,,,TrialProc,764362,Yes,5440,769802,1,1037,770868,2,744,771628,human,1307,772960,TrialList,La sabiduría es un extranjero distante.,,51,1,44
Tweet_Rating_Spanish_Right,1,1,18-30,"<?xml version=""1.0""?>\n<Clock xmlns:dt=""urn:schemas-microsoft-com:datatypes""><Description dt:dt=""string"">E-Prime Primary Realtime Clock</Description><StartTime><Timestamp dt:dt=""int"">0</Timestamp><DateUtc dt:dt=""string"">2015-05-18T21:00:54Z</DateUtc></StartTime><FrequencyChanges><FrequencyChange><Frequency dt:dt=""r8"">2336240</Frequency><Timestamp dt:dt=""r8"">1019809309</Timestamp><Current dt:dt=""r8"">0</Current><DateUtc dt:dt=""string"">2015-05-18T21:00:54Z</DateUtc></FrequencyChange></FrequencyChanges></Clock>\n",Tweet_Rating_Spanish_Right-1-1,59.796,1.0.0.374,Español,1,Estudiante de posgrado,1020274971,Professional,2.0.10.353,2.0.10.353,05-18-2015,18/05/2015 21:00,23:00:54,femenino ,2.0.10.248,4,4,1,4,BlockProc,BlockList,45,0,,2,2,2,c,15,1,1,,,,,,,TrialProc,778543,No,4207,782750,,0,0,1,982,783756,computer,1004,784782,TrialList,La historia es una ciencia moderna.,,15,1,45
Tweet_Rating_Spanish_Right,1,1,18-30,"<?xml version=""1.0""?>\n<Clock xmlns:dt=""urn:schemas-microsoft-com:datatypes""><Description dt:dt=""string"">E-Prime Primary Realtime Clock</Description><StartTime><Timestamp dt:dt=""int"">0</Timestamp><DateUtc dt:dt=""string"">2015-05-18T21:00:54Z</DateUtc></StartTime><FrequencyChanges><FrequencyChange><Frequency dt:dt=""r8"">2336240</Frequency><Timestamp dt:dt=""r8"">1019809309</Timestamp><Current dt:dt=""r8"">0</Current><DateUtc dt:dt=""string"">2015-05-18T21:00:54Z</DateUtc></FrequencyChange></FrequencyChanges></Clock>\n",Tweet_Rating_Spanish_Right-1-1,59.796,1.0.0.374,Español,1,Estudiante de posgrado,1020274971,Professional,2.0.10.353,2.0.10.353,05-18-2015,18/05/2015 21:00,23:00:54,femenino ,2.0.10.248,4,4,1,4,BlockProc,BlockList,46,0,,1,1,2,c,47,1,1,,,,,,,TrialProc,789899,Yes,2772,792671,3,2450,795141,4,1451,796617,human,833,797471,TrialList,El aprendizaje es una inversión gratificante.,,47,1,46
Tweet_Rating_Spanish_Right,1,1,18-30,"<?xml version=""1.0""?>\n<Clock xmlns:dt=""urn:schemas-microsoft-com:datatypes""><Description dt:dt=""string"">E-Prime Primary Realtime Clock</Description><StartTime><Timestamp dt:dt=""int"">0</Timestamp><DateUtc dt:dt=""string"">2015-05-18T21:00:54Z</DateUtc></StartTime><FrequencyChanges><FrequencyChange><Frequency dt:dt=""r8"">2336240</Frequency><Timestamp dt:dt=""r8"">1019809309</Timestamp><Current dt:dt=""r8"">0</Current><DateUtc dt:dt=""string"">2015-05-18T21:00:54Z</DateUtc></FrequencyChange></FrequencyChanges></Clock>\n",Tweet_Rating_Spanish_Right-1-1,59.796,1.0.0.374,Español,1,Estudiante de posgrado,1020274971,Professional,2.0.10.353,2.0.10.353,05-18-2015,18/05/2015 21:00,23:00:54,femenino ,2.0.10.248,4,4,1,4,BlockProc,BlockList,47,0,,1,2,2,c,11,1,1,,,,,,,TrialProc,801856,No,3682,805538,,0,0,1,488,806056,computer,946,807033,TrialList,El amor es un fuego reconfortante.,,11,1,47
Tweet_Rating_Spanish_Right,1,1,18-30,"<?xml version=""1.0""?>\n<Clock xmlns:dt=""urn:schemas-microsoft-com:datatypes""><Description dt:dt=""string"">E-Prime Primary Realtime Clock</Description><StartTime><Timestamp dt:dt=""int"">0</Timestamp><DateUtc dt:dt=""string"">2015-05-18T21:00:54Z</DateUtc></StartTime><FrequencyChanges><FrequencyChange><Frequency dt:dt=""r8"">2336240</Frequency><Timestamp dt:dt=""r8"">1019809309</Timestamp><Current dt:dt=""r8"">0</Current><DateUtc dt:dt=""string"">2015-05-18T21:00:54Z</DateUtc></FrequencyChange></FrequencyChanges></Clock>\n",Tweet_Rating_Spanish_Right-1-1,59.796,1.0.0.374,Español,1,Estudiante de posgrado,1020274971,Professional,2.0.10.353,2.0.10.353,05-18-2015,18/05/2015 21:00,23:00:54,femenino ,2.0.10.248,4,4,1,4,BlockProc,BlockList,48,0,,1,1,2,c,30,2,2,,,,,,,TrialProc,811254,No,5669,816923,,0,0,2,929,817869,human,1351,819244,TrialList,La música es una luz cálida.,,30,1,48
Tweet_Rating_Spanish_Right,1,1,18-30,"<?xml version=""1.0""?>\n<Clock xmlns:dt=""urn:schemas-microsoft-com:datatypes""><Description dt:dt=""string"">E-Prime Primary Realtime Clock</Description><StartTime><Timestamp dt:dt=""int"">0</Timestamp><DateUtc dt:dt=""string"">2015-05-18T21:00:54Z</DateUtc></StartTime><FrequencyChanges><FrequencyChange><Frequency dt:dt=""r8"">2336240</Frequency><Timestamp dt:dt=""r8"">1019809309</Timestamp><Current dt:dt=""r8"">0</Current><DateUtc dt:dt=""string"">2015-05-18T21:00:54Z</DateUtc></FrequencyChange></FrequencyChanges></Clock>\n",Tweet_Rating_Spanish_Right-1-1,59.796,1.0.0.374,Español,1,Estudiante de posgrado,1020274971,Professional,2.0.10.353,2.0.10.353,05-18-2015,18/05/2015 21:00,23:00:54,femenino ,2.0.10.248,4,4,1,4,BlockProc,BlockList,49,0,,2,1,2,c,27,1,1,,,,,,,TrialProc,823412,Yes,3540,826952,1,1124,828098,3,1444,829572,human,1337,830937,TrialList,El arte es un amor hermoso.,,27,1,49
Tweet_Rating_Spanish_Right,1,1,18-30,"<?xml version=""1.0""?>\n<Clock xmlns:dt=""urn:schemas-microsoft-com:datatypes""><Description dt:dt=""string"">E-Prime Primary Realtime Clock</Description><StartTime><Timestamp dt:dt=""int"">0</Timestamp><DateUtc dt:dt=""string"">2015-05-18T21:00:54Z</DateUtc></StartTime><FrequencyChanges><FrequencyChange><Frequency dt:dt=""r8"">2336240</Frequency><Timestamp dt:dt=""r8"">1019809309</Timestamp><Current dt:dt=""r8"">0</Current><DateUtc dt:dt=""string"">2015-05-18T21:00:54Z</DateUtc></FrequencyChange></FrequencyChanges></Clock>\n",Tweet_Rating_Spanish_Right-1-1,59.796,1.0.0.374,Español,1,Estudiante de posgrado,1020274971,Professional,2.0.10.353,2.0.10.353,05-18-2015,18/05/2015 21:00,23:00:54,femenino ,2.0.10.248,4,4,1,4,BlockProc,BlockList,50,0,,2,2,1,c,41,1,1,,,,,,,TrialProc,835152,Yes,1802,836954,3,1393,838368,4,798,839194,human,875,840091,TrialList,La muerte es un sueño relajante.,,41,1,50
Tweet_Rating_Spanish_Right,1,1,18-30,"<?xml version=""1.0""?>\n<Clock xmlns:dt=""urn:schemas-microsoft-com:datatypes""><Description dt:dt=""string"">E-Prime Primary Realtime Clock</Description><StartTime><Timestamp dt:dt=""int"">0</Timestamp><DateUtc dt:dt=""string"">2015-05-18T21:00:54Z</DateUtc></StartTime><FrequencyChanges><FrequencyChange><Frequency dt:dt=""r8"">2336240</Frequency><Timestamp dt:dt=""r8"">1019809309</Timestamp><Current dt:dt=""r8"">0</Current><DateUtc dt:dt=""string"">2015-05-18T21:00:54Z</DateUtc></FrequencyChange></FrequencyChanges></Clock>\n",Tweet_Rating_Spanish_Right-1-1,59.796,1.0.0.374,Español,1,Estudiante de posgrado,1020274971,Professional,2.0.10.353,2.0.10.353,05-18-2015,18/05/2015 21:00,23:00:54,femenino ,2.0.10.248,4,4,1,4,BlockProc,BlockList,51,0,,1,3,2,c,35,3,3,,,,,,,TrialProc,844132,No,1796,845928,,0,0,1,680,846635,computer,717,847375,TrialList,El poder es  agua pura.,,35,1,51
Tweet_Rating_Spanish_Right,1,1,18-30,"<?xml version=""1.0""?>\n<Clock xmlns:dt=""urn:schemas-microsoft-com:datatypes""><Description dt:dt=""string"">E-Prime Primary Realtime Clock</Description><StartTime><Timestamp dt:dt=""int"">0</Timestamp><DateUtc dt:dt=""string"">2015-05-18T21:00:54Z</DateUtc></StartTime><FrequencyChanges><FrequencyChange><Frequency dt:dt=""r8"">2336240</Frequency><Timestamp dt:dt=""r8"">1019809309</Timestamp><Current dt:dt=""r8"">0</Current><DateUtc dt:dt=""string"">2015-05-18T21:00:54Z</DateUtc></FrequencyChange></FrequencyChanges></Clock>\n",Tweet_Rating_Spanish_Right-1-1,59.796,1.0.0.374,Español,1,Estudiante de posgrado,1020274971,Professional,2.0.10.353,2.0.10.353,05-18-2015,18/05/2015 21:00,23:00:54,femenino ,2.0.10.248,4,4,1,4,BlockProc,BlockList,52,1,,1,2,1,h,53,3,2,,,,,,,TrialProc,851424,No,3827,855251,,0,0,1,511,855781,computer,851,856656,TrialList,La evolución es una lotería en curso.,,53,1,52
Tweet_Rating_Spanish_Right,1,1,18-30,"<?xml version=""1.0""?>\n<Clock xmlns:dt=""urn:schemas-microsoft-com:datatypes""><Description dt:dt=""string"">E-Prime Primary Realtime Clock</Description><StartTime><Timestamp dt:dt=""int"">0</Timestamp><DateUtc dt:dt=""string"">2015-05-18T21:00:54Z</DateUtc></StartTime><FrequencyChanges><FrequencyChange><Frequency dt:dt=""r8"">2336240</Frequency><Timestamp dt:dt=""r8"">1019809309</Timestamp><Current dt:dt=""r8"">0</Current><DateUtc dt:dt=""string"">2015-05-18T21:00:54Z</DateUtc></FrequencyChange></FrequencyChanges></Clock>\n",Tweet_Rating_Spanish_Right-1-1,59.796,1.0.0.374,Español,1,Estudiante de posgrado,1020274971,Professional,2.0.10.353,2.0.10.353,05-18-2015,18/05/2015 21:00,23:00:54,femenino ,2.0.10.248,4,4,1,4,BlockProc,BlockList,53,1,,1,1,2,c,48,1,3,,,,,,,TrialProc,860856,No,1019,861875,,0,0,1,374,862267,computer,398,862692,TrialList,El gobierno es una luz cálida.,,48,1,53
Tweet_Rating_Spanish_Right,1,1,18-30,"<?xml version=""1.0""?>\n<Clock xmlns:dt=""urn:schemas-microsoft-com:datatypes""><Description dt:dt=""string"">E-Prime Primary Realtime Clock</Description><StartTime><Timestamp dt:dt=""int"">0</Timestamp><DateUtc dt:dt=""string"">2015-05-18T21:00:54Z</DateUtc></StartTime><FrequencyChanges><FrequencyChange><Frequency dt:dt=""r8"">2336240</Frequency><Timestamp dt:dt=""r8"">1019809309</Timestamp><Current dt:dt=""r8"">0</Current><DateUtc dt:dt=""string"">2015-05-18T21:00:54Z</DateUtc></FrequencyChange></FrequencyChanges></Clock>\n",Tweet_Rating_Spanish_Right-1-1,59.796,1.0.0.374,Español,1,Estudiante de posgrado,1020274971,Professional,2.0.10.353,2.0.10.353,05-18-2015,18/05/2015 21:00,23:00:54,femenino ,2.0.10.248,4,4,1,4,BlockProc,BlockList,54,0,,2,2,2,c,38,2,2,,,,,,,TrialProc,867361,Yes,2503,869864,3,1602,871488,4,926,872434,human,869,873331,TrialList,El amor es un medicamento beneficioso.,,38,1,54
Tweet_Rating_Spanish_Right,1,1,18-30,"<?xml version=""1.0""?>\n<Clock xmlns:dt=""urn:schemas-microsoft-com:datatypes""><Description dt:dt=""string"">E-Prime Primary Realtime Clock</Description><StartTime><Timestamp dt:dt=""int"">0</Timestamp><DateUtc dt:dt=""string"">2015-05-18T21:00:54Z</DateUtc></StartTime><FrequencyChanges><FrequencyChange><Frequency dt:dt=""r8"">2336240</Frequency><Timestamp dt:dt=""r8"">1019809309</Timestamp><Current dt:dt=""r8"">0</Current><DateUtc dt:dt=""string"">2015-05-18T21:00:54Z</DateUtc></FrequencyChange></FrequencyChanges></Clock>\n",Tweet_Rating_Spanish_Right-1-1,59.796,1.0.0.374,Español,1,Estudiante de posgrado,1020274971,Professional,2.0.10.353,2.0.10.353,05-18-2015,18/05/2015 21:00,23:00:54,femenino ,2.0.10.248,4,4,1,4,BlockProc,BlockList,55,0,,1,2,2,c,46,1,1,,,,,,,TrialProc,877495,Yes,2350,879845,3,1250,881120,5,1184,882325,human,928,883273,TrialList,La imaginación es una belleza atractiva.,,46,1,55
Tweet_Rating_Spanish_Right,1,1,18-30,"<?xml version=""1.0""?>\n<Clock xmlns:dt=""urn:schemas-microsoft-com:datatypes""><Description dt:dt=""string"">E-Prime Primary Realtime Clock</Description><StartTime><Timestamp dt:dt=""int"">0</Timestamp><DateUtc dt:dt=""string"">2015-05-18T21:00:54Z</DateUtc></StartTime><FrequencyChanges><FrequencyChange><Frequency dt:dt=""r8"">2336240</Frequency><Timestamp dt:dt=""r8"">1019809309</Timestamp><Current dt:dt=""r8"">0</Current><DateUtc dt:dt=""string"">2015-05-18T21:00:54Z</DateUtc></FrequencyChange></FrequencyChanges></Clock>\n",Tweet_Rating_Spanish_Right-1-1,59.796,1.0.0.374,Español,1,Estudiante de posgrado,1020274971,Professional,2.0.10.353,2.0.10.353,05-18-2015,18/05/2015 21:00,23:00:54,femenino ,2.0.10.248,4,4,1,4,BlockProc,BlockList,56,1,,2,1,2,c,49,3,1,,,,,,,TrialProc,887463,No,3588,891051,,0,0,2,1012,892087,human,1080,893192,TrialList,La sangre es un vino atractivo.,,49,1,56
Tweet_Rating_Spanish_Right,1,1,18-30,"<?xml version=""1.0""?>\n<Clock xmlns:dt=""urn:schemas-microsoft-com:datatypes""><Description dt:dt=""string"">E-Prime Primary Realtime Clock</Description><StartTime><Timestamp dt:dt=""int"">0</Timestamp><DateUtc dt:dt=""string"">2015-05-18T21:00:54Z</DateUtc></StartTime><FrequencyChanges><FrequencyChange><Frequency dt:dt=""r8"">2336240</Frequency><Timestamp dt:dt=""r8"">1019809309</Timestamp><Current dt:dt=""r8"">0</Current><DateUtc dt:dt=""string"">2015-05-18T21:00:54Z</DateUtc></FrequencyChange></FrequencyChanges></Clock>\n",Tweet_Rating_Spanish_Right-1-1,59.796,1.0.0.374,Español,1,Estudiante de posgrado,1020274971,Professional,2.0.10.353,2.0.10.353,05-18-2015,18/05/2015 21:00,23:00:54,femenino ,2.0.10.248,4,4,1,4,BlockProc,BlockList,57,0,,2,2,2,c,6,1,1,,,,,,,TrialProc,897597,Yes,2737,900334,2,746,901102,2,832,901957,human,1165,903143,TrialList,El arte es un amor tierno.,,6,1,57
Tweet_Rating_Spanish_Right,1,1,18-30,"<?xml version=""1.0""?>\n<Clock xmlns:dt=""urn:schemas-microsoft-com:datatypes""><Description dt:dt=""string"">E-Prime Primary Realtime Clock</Description><StartTime><Timestamp dt:dt=""int"">0</Timestamp><DateUtc dt:dt=""string"">2015-05-18T21:00:54Z</DateUtc></StartTime><FrequencyChanges><FrequencyChange><Frequency dt:dt=""r8"">2336240</Frequency><Timestamp dt:dt=""r8"">1019809309</Timestamp><Current dt:dt=""r8"">0</Current><DateUtc dt:dt=""string"">2015-05-18T21:00:54Z</DateUtc></FrequencyChange></FrequencyChanges></Clock>\n",Tweet_Rating_Spanish_Right-1-1,59.796,1.0.0.374,Español,1,Estudiante de posgrado,1020274971,Professional,2.0.10.353,2.0.10.353,05-18-2015,18/05/2015 21:00,23:00:54,femenino ,2.0.10.248,4,4,1,4,BlockProc,BlockList,58,0,,2,2,1,c,4,3,3,,,,,,,TrialProc,907363,No,1906,909269,,0,0,1,610,909896,computer,622,910544,TrialList,El miedo es un dulce amor.,,4,1,58
Tweet_Rating_Spanish_Right,1,1,18-30,"<?xml version=""1.0""?>\n<Clock xmlns:dt=""urn:schemas-microsoft-com:datatypes""><Description dt:dt=""string"">E-Prime Primary Realtime Clock</Description><StartTime><Timestamp dt:dt=""int"">0</Timestamp><DateUtc dt:dt=""string"">2015-05-18T21:00:54Z</DateUtc></StartTime><FrequencyChanges><FrequencyChange><Frequency dt:dt=""r8"">2336240</Frequency><Timestamp dt:dt=""r8"">1019809309</Timestamp><Current dt:dt=""r8"">0</Current><DateUtc dt:dt=""string"">2015-05-18T21:00:54Z</DateUtc></FrequencyChange></FrequencyChanges></Clock>\n",Tweet_Rating_Spanish_Right-1-1,59.796,1.0.0.374,Español,1,Estudiante de posgrado,1020274971,Professional,2.0.10.353,2.0.10.353,05-18-2015,18/05/2015 21:00,23:00:54,femenino ,2.0.10.248,4,4,1,4,BlockProc,BlockList,59,0,,2,1,2,c,26,3,3,,,,,,,TrialProc,914554,Yes,3142,917696,3,1217,918932,4,1014,919967,human,845,920834,TrialList,El negocio es un vino sabroso.,,26,1,59
Tweet_Rating_Spanish_Right,1,1,18-30,"<?xml version=""1.0""?>\n<Clock xmlns:dt=""urn:schemas-microsoft-com:datatypes""><Description dt:dt=""string"">E-Prime Primary Realtime Clock</Description><StartTime><Timestamp dt:dt=""int"">0</Timestamp><DateUtc dt:dt=""string"">2015-05-18T21:00:54Z</DateUtc></StartTime><FrequencyChanges><FrequencyChange><Frequency dt:dt=""r8"">2336240</Frequency><Timestamp dt:dt=""r8"">1019809309</Timestamp><Current dt:dt=""r8"">0</Current><DateUtc dt:dt=""string"">2015-05-18T21:00:54Z</DateUtc></FrequencyChange></FrequencyChanges></Clock>\n",Tweet_Rating_Spanish_Right-1-1,59.796,1.0.0.374,Español,1,Estudiante de posgrado,1020274971,Professional,2.0.10.353,2.0.10.353,05-18-2015,18/05/2015 21:00,23:00:54,femenino ,2.0.10.248,4,4,1,4,BlockProc,BlockList,60,1,,2,2,1,c,18,2,1,,,,,,,TrialProc,924889,Yes,3218,928107,3,2942,931076,5,1755,932849,human,1079,933945,TrialList,La religión es un arte célebre.,,18,1,60
Tweet_Rating_Spanish_Right,10,1,45+,"<?xml version=""1.0""?>\n<Clock xmlns:dt=""urn:schemas-microsoft-com:datatypes""><Description dt:dt=""string"">E-Prime Primary Realtime Clock</Description><StartTime><Timestamp dt:dt=""int"">0</Timestamp><DateUtc dt:dt=""string"">2015-06-04T18:28:42Z</DateUtc></StartTime><FrequencyChanges><FrequencyChange><Frequency dt:dt=""r8"">2336191</Frequency><Timestamp dt:dt=""r8"">464498945</Timestamp><Current dt:dt=""r8"">0</Current><DateUtc dt:dt=""string"">2015-06-04T18:28:42Z</DateUtc></FrequencyChange></FrequencyChanges></Clock>\n",Tweet_Rating_Spanish_Right-10-1,59.796,1.0.0.383,Español,1,Personal docente y/o investigador,464952516,Professional,2.0.10.353,2.0.10.353,06/04/2015,04/06/2015 18:28,20:28:43,femenino ,2.0.10.248,4,4,1,4,BlockProc,BlockList,1,0,,1,1,2,c,32,2,2,,,,,,,TrialProc,570627,No,3735,574362,,0,0,1,2808,577197,computer,2237,579453,TrialList,La tecnología es una luz cálida.,,32,1,1
Tweet_Rating_Spanish_Right,10,1,45+,"<?xml version=""1.0""?>\n<Clock xmlns:dt=""urn:schemas-microsoft-com:datatypes""><Description dt:dt=""string"">E-Prime Primary Realtime Clock</Description><StartTime><Timestamp dt:dt=""int"">0</Timestamp><DateUtc dt:dt=""string"">2015-06-04T18:28:42Z</DateUtc></StartTime><FrequencyChanges><FrequencyChange><Frequency dt:dt=""r8"">2336191</Frequency><Timestamp dt:dt=""r8"">464498945</Timestamp><Current dt:dt=""r8"">0</Current><DateUtc dt:dt=""string"">2015-06-04T18:28:42Z</DateUtc></FrequencyChange></FrequencyChanges></Clock>\n",Tweet_Rating_Spanish_Right-10-1,59.796,1.0.0.383,Español,1,Personal docente y/o investigador,464952516,Professional,2.0.10.353,2.0.10.353,06/04/2015,04/06/2015 18:28,20:28:43,femenino ,2.0.10.248,4,4,1,4,BlockProc,BlockList,2,0,,2,1,2,c,27,1,1,,,,,,,TrialProc,587584,Yes,3606,591190,3,2890,594104,5,2806,596929,human,1616,598566,TrialList,El arte es un amor hermoso.,,27,1,2
Tweet_Rating_Spanish_Right,10,1,45+,"<?xml version=""1.0""?>\n<Clock xmlns:dt=""urn:schemas-microsoft-com:datatypes""><Description dt:dt=""string"">E-Prime Primary Realtime Clock</Description><StartTime><Timestamp dt:dt=""int"">0</Timestamp><DateUtc dt:dt=""string"">2015-06-04T18:28:42Z</DateUtc></StartTime><FrequencyChanges><FrequencyChange><Frequency dt:dt=""r8"">2336191</Frequency><Timestamp dt:dt=""r8"">464498945</Timestamp><Current dt:dt=""r8"">0</Current><DateUtc dt:dt=""string"">2015-06-04T18:28:42Z</DateUtc></FrequencyChange></FrequencyChanges></Clock>\n",Tweet_Rating_Spanish_Right-10-1,59.796,1.0.0.383,Español,1,Personal docente y/o investigador,464952516,Professional,2.0.10.353,2.0.10.353,06/04/2015,04/06/2015 18:28,20:28:43,femenino ,2.0.10.248,4,4,1,4,BlockProc,BlockList,3,0,,2,3,1,c,14,2,2,,,,,,,TrialProc,603188,Yes,6598,609786,2,3373,613183,3,4447,617652,computer,3107,620777,TrialList,El lenguaje es un amor tierno.,,14,1,3
Tweet_Rating_Spanish_Right,10,1,45+,"<?xml version=""1.0""?>\n<Clock xmlns:dt=""urn:schemas-microsoft-com:datatypes""><Description dt:dt=""string"">E-Prime Primary Realtime Clock</Description><StartTime><Timestamp dt:dt=""int"">0</Timestamp><DateUtc dt:dt=""string"">2015-06-04T18:28:42Z</DateUtc></StartTime><FrequencyChanges><FrequencyChange><Frequency dt:dt=""r8"">2336191</Frequency><Timestamp dt:dt=""r8"">464498945</Timestamp><Current dt:dt=""r8"">0</Current><DateUtc dt:dt=""string"">2015-06-04T18:28:42Z</DateUtc></FrequencyChange></FrequencyChanges></Clock>\n",Tweet_Rating_Spanish_Right-10-1,59.796,1.0.0.383,Español,1,Personal docente y/o investigador,464952516,Professional,2.0.10.353,2.0.10.353,06/04/2015,04/06/2015 18:28,20:28:43,femenino ,2.0.10.248,4,4,1,4,BlockProc,BlockList,4,0,,2,3,2,c,36,1,1,,,,,,,TrialProc,625848,Yes,4372,630220,2,4106,634353,3,2412,636789,human,1475,638277,TrialList,El amor es una música relajante.,,36,1,4
Tweet_Rating_Spanish_Right,10,1,45+,"<?xml version=""1.0""?>\n<Clock xmlns:dt=""urn:schemas-microsoft-com:datatypes""><Description dt:dt=""string"">E-Prime Primary Realtime Clock</Description><StartTime><Timestamp dt:dt=""int"">0</Timestamp><DateUtc dt:dt=""string"">2015-06-04T18:28:42Z</DateUtc></StartTime><FrequencyChanges><FrequencyChange><Frequency dt:dt=""r8"">2336191</Frequency><Timestamp dt:dt=""r8"">464498945</Timestamp><Current dt:dt=""r8"">0</Current><DateUtc dt:dt=""string"">2015-06-04T18:28:42Z</DateUtc></FrequencyChange></FrequencyChanges></Clock>\n",Tweet_Rating_Spanish_Right-10-1,59.796,1.0.0.383,Español,1,Personal docente y/o investigador,464952516,Professional,2.0.10.353,2.0.10.353,06/04/2015,04/06/2015 18:28,20:28:43,femenino ,2.0.10.248,4,4,1,4,BlockProc,BlockList,5,0,,2,1,1,c,8,3,3,,,,,,,TrialProc,643793,No,3619,647412,,0,0,1,2739,650178,computer,2626,652824,TrialList,La guerra es un amor tierno.,,8,1,5
Tweet_Rating_Spanish_Right,10,1,45+,"<?xml version=""1.0""?>\n<Clock xmlns:dt=""urn:schemas-microsoft-com:datatypes""><Description dt:dt=""string"">E-Prime Primary Realtime Clock</Description><StartTime><Timestamp dt:dt=""int"">0</Timestamp><DateUtc dt:dt=""string"">2015-06-04T18:28:42Z</DateUtc></StartTime><FrequencyChanges><FrequencyChange><Frequency dt:dt=""r8"">2336191</Frequency><Timestamp dt:dt=""r8"">464498945</Timestamp><Current dt:dt=""r8"">0</Current><DateUtc dt:dt=""string"">2015-06-04T18:28:42Z</DateUtc></FrequencyChange></FrequencyChanges></Clock>\n",Tweet_Rating_Spanish_Right-10-1,59.796,1.0.0.383,Español,1,Personal docente y/o investigador,464952516,Professional,2.0.10.353,2.0.10.353,06/04/2015,04/06/2015 18:28,20:28:43,femenino ,2.0.10.248,4,4,1,4,BlockProc,BlockList,6,0,,2,1,1,c,7,1,1,,,,,,,TrialProc,658242,Yes,6614,664856,2,3470,668351,2,2101,670478,computer,2743,673244,TrialList,El lenguaje es un arte célebre .,,7,1,6
Tweet_Rating_Spanish_Right,10,1,45+,"<?xml version=""1.0""?>\n<Clock xmlns:dt=""urn:schemas-microsoft-com:datatypes""><Description dt:dt=""string"">E-Prime Primary Realtime Clock</Description><StartTime><Timestamp dt:dt=""int"">0</Timestamp><DateUtc dt:dt=""string"">2015-06-04T18:28:42Z</DateUtc></StartTime><FrequencyChanges><FrequencyChange><Frequency dt:dt=""r8"">2336191</Frequency><Timestamp dt:dt=""r8"">464498945</Timestamp><Current dt:dt=""r8"">0</Current><DateUtc dt:dt=""string"">2015-06-04T18:28:42Z</DateUtc></FrequencyChange></FrequencyChanges></Clock>\n",Tweet_Rating_Spanish_Right-10-1,59.796,1.0.0.383,Español,1,Personal docente y/o investigador,464952516,Professional,2.0.10.353,2.0.10.353,06/04/2015,04/06/2015 18:28,20:28:43,femenino ,2.0.10.248,4,4,1,4,BlockProc,BlockList,7,0,,1,1,2,c,33,2,2,,,,,,,TrialProc,678327,No,599,678926,,0,0,4,9197,688143,human,2239,690400,TrialList,La programación es un arte apreciado.,,33,1,7
Tweet_Rating_Spanish_Right,10,1,45+,"<?xml version=""1.0""?>\n<Clock xmlns:dt=""urn:schemas-microsoft-com:datatypes""><Description dt:dt=""string"">E-Prime Primary Realtime Clock</Description><StartTime><Timestamp dt:dt=""int"">0</Timestamp><DateUtc dt:dt=""string"">2015-06-04T18:28:42Z</DateUtc></StartTime><FrequencyChanges><FrequencyChange><Frequency dt:dt=""r8"">2336191</Frequency><Timestamp dt:dt=""r8"">464498945</Timestamp><Current dt:dt=""r8"">0</Current><DateUtc dt:dt=""string"">2015-06-04T18:28:42Z</DateUtc></FrequencyChange></FrequencyChanges></Clock>\n",Tweet_Rating_Spanish_Right-10-1,59.796,1.0.0.383,Español,1,Personal docente y/o investigador,464952516,Professional,2.0.10.353,2.0.10.353,06/04/2015,04/06/2015 18:28,20:28:43,femenino ,2.0.10.248,4,4,1,4,BlockProc,BlockList,8,1,,2,2,2,c,34,2,1,,,,,,,TrialProc,695620,Yes,3548,699168,3,2587,701785,4,3133,704940,human,1500,706468,TrialList,El destino es un cielo precioso.,,34,1,8
Tweet_Rating_Spanish_Right,10,1,45+,"<?xml version=""1.0""?>\n<Clock xmlns:dt=""urn:schemas-microsoft-com:datatypes""><Description dt:dt=""string"">E-Prime Primary Realtime Clock</Description><StartTime><Timestamp dt:dt=""int"">0</Timestamp><DateUtc dt:dt=""string"">2015-06-04T18:28:42Z</DateUtc></StartTime><FrequencyChanges><FrequencyChange><Frequency dt:dt=""r8"">2336191</Frequency><Timestamp dt:dt=""r8"">464498945</Timestamp><Current dt:dt=""r8"">0</Current><DateUtc dt:dt=""string"">2015-06-04T18:28:42Z</DateUtc></FrequencyChange></FrequencyChanges></Clock>\n",Tweet_Rating_Spanish_Right-10-1,59.796,1.0.0.383,Español,1,Personal docente y/o investigador,464952516,Professional,2.0.10.353,2.0.10.353,06/04/2015,04/06/2015 18:28,20:28:43,femenino ,2.0.10.248,4,4,1,4,BlockProc,BlockList,9,0,,2,1,2,c,20,3,3,,,,,,,TrialProc,712276,No,2831,715107,,0,0,1,1768,716904,computer,2366,719291,TrialList,La guerra es un amor apasionante.,,20,1,9
Tweet_Rating_Spanish_Right,10,1,45+,"<?xml version=""1.0""?>\n<Clock xmlns:dt=""urn:schemas-microsoft-com:datatypes""><Description dt:dt=""string"">E-Prime Primary Realtime Clock</Description><StartTime><Timestamp dt:dt=""int"">0</Timestamp><DateUtc dt:dt=""string"">2015-06-04T18:28:42Z</DateUtc></StartTime><FrequencyChanges><FrequencyChange><Frequency dt:dt=""r8"">2336191</Frequency><Timestamp dt:dt=""r8"">464498945</Timestamp><Current dt:dt=""r8"">0</Current><DateUtc dt:dt=""string"">2015-06-04T18:28:42Z</DateUtc></FrequencyChange></FrequencyChanges></Clock>\n",Tweet_Rating_Spanish_Right-10-1,59.796,1.0.0.383,Español,1,Personal docente y/o investigador,464952516,Professional,2.0.10.353,2.0.10.353,06/04/2015,04/06/2015 18:28,20:28:43,femenino ,2.0.10.248,4,4,1,4,BlockProc,BlockList,10,0,,2,2,2,h,60,1,1,,,,,,,TrialProc,724635,Yes,2855,727490,3,2045,729557,5,3278,732863,human,1311,734191,TrialList,La educación es una linterna brillante.,,60,1,10
Tweet_Rating_Spanish_Right,10,1,45+,"<?xml version=""1.0""?>\n<Clock xmlns:dt=""urn:schemas-microsoft-com:datatypes""><Description dt:dt=""string"">E-Prime Primary Realtime Clock</Description><StartTime><Timestamp dt:dt=""int"">0</Timestamp><DateUtc dt:dt=""string"">2015-06-04T18:28:42Z</DateUtc></StartTime><FrequencyChanges><FrequencyChange><Frequency dt:dt=""r8"">2336191</Frequency><Timestamp dt:dt=""r8"">464498945</Timestamp><Current dt:dt=""r8"">0</Current><DateUtc dt:dt=""string"">2015-06-04T18:28:42Z</DateUtc></FrequencyChange></FrequencyChanges></Clock>\n",Tweet_Rating_Spanish_Right-10-1,59.796,1.0.0.383,Español,1,Personal docente y/o investigador,464952516,Professional,2.0.10.353,2.0.10.353,06/04/2015,04/06/2015 18:28,20:28:43,femenino ,2.0.10.248,4,4,1,4,BlockProc,BlockList,11,0,,2,2,3,c,13,2,2,,,,,,,TrialProc,739620,Yes,2810,742430,3,2172,744618,5,3456,748093,human,1447,749562,TrialList,La vida es un vino atractivo.,,13,1,11
Tweet_Rating_Spanish_Right,10,1,45+,"<?xml version=""1.0""?>\n<Clock xmlns:dt=""urn:schemas-microsoft-com:datatypes""><Description dt:dt=""string"">E-Prime Primary Realtime Clock</Description><StartTime><Timestamp dt:dt=""int"">0</Timestamp><DateUtc dt:dt=""string"">2015-06-04T18:28:42Z</DateUtc></StartTime><FrequencyChanges><FrequencyChange><Frequency dt:dt=""r8"">2336191</Frequency><Timestamp dt:dt=""r8"">464498945</Timestamp><Current dt:dt=""r8"">0</Current><DateUtc dt:dt=""string"">2015-06-04T18:28:42Z</DateUtc></FrequencyChange></FrequencyChanges></Clock>\n",Tweet_Rating_Spanish_Right-10-1,59.796,1.0.0.383,Español,1,Personal docente y/o investigador,464952516,Professional,2.0.10.353,2.0.10.353,06/04/2015,04/06/2015 18:28,20:28:43,femenino ,2.0.10.248,4,4,1,4,BlockProc,BlockList,12,0,,1,1,2,c,30,2,2,,,,,,,TrialProc,754788,Yes,2285,757073,3,3193,760289,4,3138,763445,human,1765,765233,TrialList,La música es una luz cálida.,,30,1,12
Tweet_Rating_Spanish_Right,10,1,45+,"<?xml version=""1.0""?>\n<Clock xmlns:dt=""urn:schemas-microsoft-com:datatypes""><Description dt:dt=""string"">E-Prime Primary Realtime Clock</Description><StartTime><Timestamp dt:dt=""int"">0</Timestamp><DateUtc dt:dt=""string"">2015-06-04T18:28:42Z</DateUtc></StartTime><FrequencyChanges><FrequencyChange><Frequency dt:dt=""r8"">2336191</Frequency><Timestamp dt:dt=""r8"">464498945</Timestamp><Current dt:dt=""r8"">0</Current><DateUtc dt:dt=""string"">2015-06-04T18:28:42Z</DateUtc></FrequencyChange></FrequencyChanges></Clock>\n",Tweet_Rating_Spanish_Right-10-1,59.796,1.0.0.383,Español,1,Personal docente y/o investigador,464952516,Professional,2.0.10.353,2.0.10.353,06/04/2015,04/06/2015 18:28,20:28:43,femenino ,2.0.10.248,4,4,1,4,BlockProc,BlockList,13,0,,1,3,2,c,3,3,3,,,,,,,TrialProc,770157,No,3236,773393,,0,0,1,4141,777559,computer,2623,780205,TrialList,los negocios son agua pura.,,3,1,13
Tweet_Rating_Spanish_Right,10,1,45+,"<?xml version=""1.0""?>\n<Clock xmlns:dt=""urn:schemas-microsoft-com:datatypes""><Description dt:dt=""string"">E-Prime Primary Realtime Clock</Description><StartTime><Timestamp dt:dt=""int"">0</Timestamp><DateUtc dt:dt=""string"">2015-06-04T18:28:42Z</DateUtc></StartTime><FrequencyChanges><FrequencyChange><Frequency dt:dt=""r8"">2336191</Frequency><Timestamp dt:dt=""r8"">464498945</Timestamp><Current dt:dt=""r8"">0</Current><DateUtc dt:dt=""string"">2015-06-04T18:28:42Z</DateUtc></FrequencyChange></FrequencyChanges></Clock>\n",Tweet_Rating_Spanish_Right-10-1,59.796,1.0.0.383,Español,1,Personal docente y/o investigador,464952516,Professional,2.0.10.353,2.0.10.353,06/04/2015,04/06/2015 18:28,20:28:43,femenino ,2.0.10.248,4,4,1,4,BlockProc,BlockList,14,1,,1,3,2,c,40,3,2,,,,,,,TrialProc,784840,No,3946,788786,,0,0,1,1919,790723,computer,1697,792441,TrialList,El dolor es una belleza atractiva.,,40,1,14
Tweet_Rating_Spanish_Right,10,1,45+,"<?xml version=""1.0""?>\n<Clock xmlns:dt=""urn:schemas-microsoft-com:datatypes""><Description dt:dt=""string"">E-Prime Primary Realtime Clock</Description><StartTime><Timestamp dt:dt=""int"">0</Timestamp><DateUtc dt:dt=""string"">2015-06-04T18:28:42Z</DateUtc></StartTime><FrequencyChanges><FrequencyChange><Frequency dt:dt=""r8"">2336191</Frequency><Timestamp dt:dt=""r8"">464498945</Timestamp><Current dt:dt=""r8"">0</Current><DateUtc dt:dt=""string"">2015-06-04T18:28:42Z</DateUtc></FrequencyChange></FrequencyChanges></Clock>\n",Tweet_Rating_Spanish_Right-10-1,59.796,1.0.0.383,Español,1,Personal docente y/o investigador,464952516,Professional,2.0.10.353,2.0.10.353,06/04/2015,04/06/2015 18:28,20:28:43,femenino ,2.0.10.248,4,4,1,4,BlockProc,BlockList,15,1,,2,3,2,c,2,3,2,,,,,,,TrialProc,797316,No,4125,801441,,0,0,2,2205,803669,computer,1600,805288,TrialList,La religión es una música relajante.,,2,1,15
Tweet_Rating_Spanish_Right,10,1,45+,"<?xml version=""1.0""?>\n<Clock xmlns:dt=""urn:schemas-microsoft-com:datatypes""><Description dt:dt=""string"">E-Prime Primary Realtime Clock</Description><StartTime><Timestamp dt:dt=""int"">0</Timestamp><DateUtc dt:dt=""string"">2015-06-04T18:28:42Z</DateUtc></StartTime><FrequencyChanges><FrequencyChange><Frequency dt:dt=""r8"">2336191</Frequency><Timestamp dt:dt=""r8"">464498945</Timestamp><Current dt:dt=""r8"">0</Current><DateUtc dt:dt=""string"">2015-06-04T18:28:42Z</DateUtc></FrequencyChange></FrequencyChanges></Clock>\n",Tweet_Rating_Spanish_Right-10-1,59.796,1.0.0.383,Español,1,Personal docente y/o investigador,464952516,Professional,2.0.10.353,2.0.10.353,06/04/2015,04/06/2015 18:28,20:28:43,femenino ,2.0.10.248,4,4,1,4,BlockProc,BlockList,16,0,,2,2,2,h,58,2,2,,,,,,,TrialProc,809742,Yes,6256,815998,2,2513,818526,3,2914,821453,computer,3358,824840,TrialList,La historia es un espejo agrietado.,,58,1,16
Tweet_Rating_Spanish_Right,10,1,45+,"<?xml version=""1.0""?>\n<Clock xmlns:dt=""urn:schemas-microsoft-com:datatypes""><Description dt:dt=""string"">E-Prime Primary Realtime Clock</Description><StartTime><Timestamp dt:dt=""int"">0</Timestamp><DateUtc dt:dt=""string"">2015-06-04T18:28:42Z</DateUtc></StartTime><FrequencyChanges><FrequencyChange><Frequency dt:dt=""r8"">2336191</Frequency><Timestamp dt:dt=""r8"">464498945</Timestamp><Current dt:dt=""r8"">0</Current><DateUtc dt:dt=""string"">2015-06-04T18:28:42Z</DateUtc></FrequencyChange></FrequencyChanges></Clock>\n",Tweet_Rating_Spanish_Right-10-1,59.796,1.0.0.383,Español,1,Personal docente y/o investigador,464952516,Professional,2.0.10.353,2.0.10.353,06/04/2015,04/06/2015 18:28,20:28:43,femenino ,2.0.10.248,4,4,1,4,BlockProc,BlockList,17,0,,2,1,2,c,19,3,3,,,,,,,TrialProc,829961,Yes,1943,831904,1,11587,843505,1,2539,846063,computer,1679,847762,TrialList,El desorden es un sueño tranquilo.,,19,1,17
Tweet_Rating_Spanish_Right,10,1,45+,"<?xml version=""1.0""?>\n<Clock xmlns:dt=""urn:schemas-microsoft-com:datatypes""><Description dt:dt=""string"">E-Prime Primary Realtime Clock</Description><StartTime><Timestamp dt:dt=""int"">0</Timestamp><DateUtc dt:dt=""string"">2015-06-04T18:28:42Z</DateUtc></StartTime><FrequencyChanges><FrequencyChange><Frequency dt:dt=""r8"">2336191</Frequency><Timestamp dt:dt=""r8"">464498945</Timestamp><Current dt:dt=""r8"">0</Current><DateUtc dt:dt=""string"">2015-06-04T18:28:42Z</DateUtc></FrequencyChange></FrequencyChanges></Clock>\n",Tweet_Rating_Spanish_Right-10-1,59.796,1.0.0.383,Español,1,Personal docente y/o investigador,464952516,Professional,2.0.10.353,2.0.10.353,06/04/2015,04/06/2015 18:28,20:28:43,femenino ,2.0.10.248,4,4,1,4,BlockProc,BlockList,18,0,,2,1,1,c,12,1,1,,,,,,,TrialProc,852270,Yes,2636,854906,3,2295,857224,5,2518,859772,human,1925,861721,TrialList,La vida es una comedia agradable.,,12,1,18
Tweet_Rating_Spanish_Right,10,1,45+,"<?xml version=""1.0""?>\n<Clock xmlns:dt=""urn:schemas-microsoft-com:datatypes""><Description dt:dt=""string"">E-Prime Primary Realtime Clock</Description><StartTime><Timestamp dt:dt=""int"">0</Timestamp><DateUtc dt:dt=""string"">2015-06-04T18:28:42Z</DateUtc></StartTime><FrequencyChanges><FrequencyChange><Frequency dt:dt=""r8"">2336191</Frequency><Timestamp dt:dt=""r8"">464498945</Timestamp><Current dt:dt=""r8"">0</Current><DateUtc dt:dt=""string"">2015-06-04T18:28:42Z</DateUtc></FrequencyChange></FrequencyChanges></Clock>\n",Tweet_Rating_Spanish_Right-10-1,59.796,1.0.0.383,Español,1,Personal docente y/o investigador,464952516,Professional,2.0.10.353,2.0.10.353,06/04/2015,04/06/2015 18:28,20:28:43,femenino ,2.0.10.248,4,4,1,4,BlockProc,BlockList,19,0,,1,1,2,c,44,3,3,,,,,,,TrialProc,866653,No,5990,872643,,0,0,1,1805,874462,computer,1422,875901,TrialList,El movimiento de resistencia es una luz cálida.,,44,1,19
Tweet_Rating_Spanish_Right,10,1,45+,"<?xml version=""1.0""?>\n<Clock xmlns:dt=""urn:schemas-microsoft-com:datatypes""><Description dt:dt=""string"">E-Prime Primary Realtime Clock</Description><StartTime><Timestamp dt:dt=""int"">0</Timestamp><DateUtc dt:dt=""string"">2015-06-04T18:28:42Z</DateUtc></StartTime><FrequencyChanges><FrequencyChange><Frequency dt:dt=""r8"">2336191</Frequency><Timestamp dt:dt=""r8"">464498945</Timestamp><Current dt:dt=""r8"">0</Current><DateUtc dt:dt=""string"">2015-06-04T18:28:42Z</DateUtc></FrequencyChange></FrequencyChanges></Clock>\n",Tweet_Rating_Spanish_Right-10-1,59.796,1.0.0.383,Español,1,Personal docente y/o investigador,464952516,Professional,2.0.10.353,2.0.10.353,06/04/2015,04/06/2015 18:28,20:28:43,femenino ,2.0.10.248,4,4,1,4,BlockProc,BlockList,20,0,,1,2,1,c,45,3,3,,,,,,,TrialProc,880851,Yes,4007,884858,2,2271,887153,2,2269,889442,computer,1627,891091,TrialList,La seguridad es una energía vigorizante.,,45,1,20
Tweet_Rating_Spanish_Right,10,1,45+,"<?xml version=""1.0""?>\n<Clock xmlns:dt=""urn:schemas-microsoft-com:datatypes""><Description dt:dt=""string"">E-Prime Primary Realtime Clock</Description><StartTime><Timestamp dt:dt=""int"">0</Timestamp><DateUtc dt:dt=""string"">2015-06-04T18:28:42Z</DateUtc></StartTime><FrequencyChanges><FrequencyChange><Frequency dt:dt=""r8"">2336191</Frequency><Timestamp dt:dt=""r8"">464498945</Timestamp><Current dt:dt=""r8"">0</Current><DateUtc dt:dt=""string"">2015-06-04T18:28:42Z</DateUtc></FrequencyChange></FrequencyChanges></Clock>\n",Tweet_Rating_Spanish_Right-10-1,59.796,1.0.0.383,Español,1,Personal docente y/o investigador,464952516,Professional,2.0.10.353,2.0.10.353,06/04/2015,04/06/2015 18:28,20:28:43,femenino ,2.0.10.248,4,4,1,4,BlockProc,BlockList,21,0,,1,3,3,h,59,2,2,,,,,,,TrialProc,896137,Yes,1,896138,3,18613,914766,5,2850,917634,human,2133,919793,TrialList,La ira es una fría tormenta de nieve.,,59,1,21
Tweet_Rating_Spanish_Right,10,1,45+,"<?xml version=""1.0""?>\n<Clock xmlns:dt=""urn:schemas-microsoft-com:datatypes""><Description dt:dt=""string"">E-Prime Primary Realtime Clock</Description><StartTime><Timestamp dt:dt=""int"">0</Timestamp><DateUtc dt:dt=""string"">2015-06-04T18:28:42Z</DateUtc></StartTime><FrequencyChanges><FrequencyChange><Frequency dt:dt=""r8"">2336191</Frequency><Timestamp dt:dt=""r8"">464498945</Timestamp><Current dt:dt=""r8"">0</Current><DateUtc dt:dt=""string"">2015-06-04T18:28:42Z</DateUtc></FrequencyChange></FrequencyChanges></Clock>\n",Tweet_Rating_Spanish_Right-10-1,59.796,1.0.0.383,Español,1,Personal docente y/o investigador,464952516,Professional,2.0.10.353,2.0.10.353,06/04/2015,04/06/2015 18:28,20:28:43,femenino ,2.0.10.248,4,4,1,4,BlockProc,BlockList,22,0,,1,3,2,c,35,3,3,,,,,,,TrialProc,924550,No,4218,928768,,0,0,2,5453,934234,computer,2633,936883,TrialList,El poder es  agua pura.,,35,1,22
Tweet_Rating_Spanish_Right,10,1,45+,"<?xml version=""1.0""?>\n<Clock xmlns:dt=""urn:schemas-microsoft-com:datatypes""><Description dt:dt=""string"">E-Prime Primary Realtime Clock</Description><StartTime><Timestamp dt:dt=""int"">0</Timestamp><DateUtc dt:dt=""string"">2015-06-04T18:28:42Z</DateUtc></StartTime><FrequencyChanges><FrequencyChange><Frequency dt:dt=""r8"">2336191</Frequency><Timestamp dt:dt=""r8"">464498945</Timestamp><Current dt:dt=""r8"">0</Current><DateUtc dt:dt=""string"">2015-06-04T18:28:42Z</DateUtc></FrequencyChange></FrequencyChanges></Clock>\n",Tweet_Rating_Spanish_Right-10-1,59.796,1.0.0.383,Español,1,Personal docente y/o investigador,464952516,Professional,2.0.10.353,2.0.10.353,06/04/2015,04/06/2015 18:28,20:28:43,femenino ,2.0.10.248,4,4,1,4,BlockProc,BlockList,23,0,,2,3,1,c,29,3,3,,,,,,,TrialProc,943264,No,3564,946828,,0,0,1,3603,950446,computer,1714,952186,TrialList,Los negocios son una música relajante.,,29,1,23
Tweet_Rating_Spanish_Right,10,1,45+,"<?xml version=""1.0""?>\n<Clock xmlns:dt=""urn:schemas-microsoft-com:datatypes""><Description dt:dt=""string"">E-Prime Primary Realtime Clock</Description><StartTime><Timestamp dt:dt=""int"">0</Timestamp><DateUtc dt:dt=""string"">2015-06-04T18:28:42Z</DateUtc></StartTime><FrequencyChanges><FrequencyChange><Frequency dt:dt=""r8"">2336191</Frequency><Timestamp dt:dt=""r8"">464498945</Timestamp><Current dt:dt=""r8"">0</Current><DateUtc dt:dt=""string"">2015-06-04T18:28:42Z</DateUtc></FrequencyChange></FrequencyChanges></Clock>\n",Tweet_Rating_Spanish_Right-10-1,59.796,1.0.0.383,Español,1,Personal docente y/o investigador,464952516,Professional,2.0.10.353,2.0.10.353,06/04/2015,04/06/2015 18:28,20:28:43,femenino ,2.0.10.248,4,4,1,4,BlockProc,BlockList,24,0,,2,2,2,c,25,2,2,,,,,,,TrialProc,957111,No,8928,966039,,0,0,3,1850,967908,computer,1897,969828,TrialList,La comida es una música agradable.,,25,1,24
Tweet_Rating_Spanish_Right,10,1,45+,"<?xml version=""1.0""?>\n<Clock xmlns:dt=""urn:schemas-microsoft-com:datatypes""><Description dt:dt=""string"">E-Prime Primary Realtime Clock</Description><StartTime><Timestamp dt:dt=""int"">0</Timestamp><DateUtc dt:dt=""string"">2015-06-04T18:28:42Z</DateUtc></StartTime><FrequencyChanges><FrequencyChange><Frequency dt:dt=""r8"">2336191</Frequency><Timestamp dt:dt=""r8"">464498945</Timestamp><Current dt:dt=""r8"">0</Current><DateUtc dt:dt=""string"">2015-06-04T18:28:42Z</DateUtc></FrequencyChange></FrequencyChanges></Clock>\n",Tweet_Rating_Spanish_Right-10-1,59.796,1.0.0.383,Español,1,Personal docente y/o investigador,464952516,Professional,2.0.10.353,2.0.10.353,06/04/2015,04/06/2015 18:28,20:28:43,femenino ,2.0.10.248,4,4,1,4,BlockProc,BlockList,25,0,,2,2,3,c,42,2,2,,,,,,,TrialProc,974153,Yes,4411,978564,3,2909,981493,4,2471,983982,human,1599,985602,TrialList,La escritura es una curación calmante.,,42,1,25
Tweet_Rating_Spanish_Right,10,1,45+,"<?xml version=""1.0""?>\n<Clock xmlns:dt=""urn:schemas-microsoft-com:datatypes""><Description dt:dt=""string"">E-Prime Primary Realtime Clock</Description><StartTime><Timestamp dt:dt=""int"">0</Timestamp><DateUtc dt:dt=""string"">2015-06-04T18:28:42Z</DateUtc></StartTime><FrequencyChanges><FrequencyChange><Frequency dt:dt=""r8"">2336191</Frequency><Timestamp dt:dt=""r8"">464498945</Timestamp><Current dt:dt=""r8"">0</Current><DateUtc dt:dt=""string"">2015-06-04T18:28:42Z</DateUtc></FrequencyChange></FrequencyChanges></Clock>\n",Tweet_Rating_Spanish_Right-10-1,59.796,1.0.0.383,Español,1,Personal docente y/o investigador,464952516,Professional,2.0.10.353,2.0.10.353,06/04/2015,04/06/2015 18:28,20:28:43,femenino ,2.0.10.248,4,4,1,4,BlockProc,BlockList,26,0,,1,2,3,h,56,2,2,,,,,,,TrialProc,991395,Yes,4064,995459,3,3843,999318,4,3099,1002437,human,1471,1003937,TrialList,La disciplina es un potente fertilizante.,,56,1,26
Tweet_Rating_Spanish_Right,10,1,45+,"<?xml version=""1.0""?>\n<Clock xmlns:dt=""urn:schemas-microsoft-com:datatypes""><Description dt:dt=""string"">E-Prime Primary Realtime Clock</Description><StartTime><Timestamp dt:dt=""int"">0</Timestamp><DateUtc dt:dt=""string"">2015-06-04T18:28:42Z</DateUtc></StartTime><FrequencyChanges><FrequencyChange><Frequency dt:dt=""r8"">2336191</Frequency><Timestamp dt:dt=""r8"">464498945</Timestamp><Current dt:dt=""r8"">0</Current><DateUtc dt:dt=""string"">2015-06-04T18:28:42Z</DateUtc></FrequencyChange></FrequencyChanges></Clock>\n",Tweet_Rating_Spanish_Right-10-1,59.796,1.0.0.383,Español,1,Personal docente y/o investigador,464952516,Professional,2.0.10.353,2.0.10.353,06/04/2015,04/06/2015 18:28,20:28:43,femenino ,2.0.10.248,4,4,1,4,BlockProc,BlockList,27,0,,2,1,2,c,26,3,3,,,,,,,TrialProc,1009958,No,4667,1014625,,0,0,2,3764,1018405,computer,1914,1020334,TrialList,El negocio es un vino sabroso.,,26,1,27
Tweet_Rating_Spanish_Right,10,1,45+,"<?xml version=""1.0""?>\n<Clock xmlns:dt=""urn:schemas-microsoft-com:datatypes""><Description dt:dt=""string"">E-Prime Primary Realtime Clock</Description><StartTime><Timestamp dt:dt=""int"">0</Timestamp><DateUtc dt:dt=""string"">2015-06-04T18:28:42Z</DateUtc></StartTime><FrequencyChanges><FrequencyChange><Frequency dt:dt=""r8"">2336191</Frequency><Timestamp dt:dt=""r8"">464498945</Timestamp><Current dt:dt=""r8"">0</Current><DateUtc dt:dt=""string"">2015-06-04T18:28:42Z</DateUtc></FrequencyChange></FrequencyChanges></Clock>\n",Tweet_Rating_Spanish_Right-10-1,59.796,1.0.0.383,Español,1,Personal docente y/o investigador,464952516,Professional,2.0.10.353,2.0.10.353,06/04/2015,04/06/2015 18:28,20:28:43,femenino ,2.0.10.248,4,4,1,4,BlockProc,BlockList,28,0,,1,3,2,h,57,2,2,,,,,,,TrialProc,1024792,No,7501,1032293,,0,0,1,1695,1034013,computer,1573,1035613,TrialList,La indecisión es un remolino en calma.,,57,1,28
Tweet_Rating_Spanish_Right,10,1,45+,"<?xml version=""1.0""?>\n<Clock xmlns:dt=""urn:schemas-microsoft-com:datatypes""><Description dt:dt=""string"">E-Prime Primary Realtime Clock</Description><StartTime><Timestamp dt:dt=""int"">0</Timestamp><DateUtc dt:dt=""string"">2015-06-04T18:28:42Z</DateUtc></StartTime><FrequencyChanges><FrequencyChange><Frequency dt:dt=""r8"">2336191</Frequency><Timestamp dt:dt=""r8"">464498945</Timestamp><Current dt:dt=""r8"">0</Current><DateUtc dt:dt=""string"">2015-06-04T18:28:42Z</DateUtc></FrequencyChange></FrequencyChanges></Clock>\n",Tweet_Rating_Spanish_Right-10-1,59.796,1.0.0.383,Español,1,Personal docente y/o investigador,464952516,Professional,2.0.10.353,2.0.10.353,06/04/2015,04/06/2015 18:28,20:28:43,femenino ,2.0.10.248,4,4,1,4,BlockProc,BlockList,29,1,,2,2,2,h,55,3,2,,,,,,,TrialProc,1040010,Yes,4322,1044332,2,2913,1047272,3,4620,1051922,computer,3440,1055391,TrialList,El sueño es un vasto océano.,,55,1,29
Tweet_Rating_Spanish_Right,10,1,45+,"<?xml version=""1.0""?>\n<Clock xmlns:dt=""urn:schemas-microsoft-com:datatypes""><Description dt:dt=""string"">E-Prime Primary Realtime Clock</Description><StartTime><Timestamp dt:dt=""int"">0</Timestamp><DateUtc dt:dt=""string"">2015-06-04T18:28:42Z</DateUtc></StartTime><FrequencyChanges><FrequencyChange><Frequency dt:dt=""r8"">2336191</Frequency><Timestamp dt:dt=""r8"">464498945</Timestamp><Current dt:dt=""r8"">0</Current><DateUtc dt:dt=""string"">2015-06-04T18:28:42Z</DateUtc></FrequencyChange></FrequencyChanges></Clock>\n",Tweet_Rating_Spanish_Right-10-1,59.796,1.0.0.383,Español,1,Personal docente y/o investigador,464952516,Professional,2.0.10.353,2.0.10.353,06/04/2015,04/06/2015 18:28,20:28:43,femenino ,2.0.10.248,4,4,1,4,BlockProc,BlockList,30,0,,2,3,3,c,24,1,1,,,,,,,TrialProc,1060296,No,5498,1065794,,0,0,1,1916,1067731,computer,1546,1069301,TrialList,El matrimonio es un infierno caliente.,,24,1,30
Tweet_Rating_Spanish_Right,10,1,45+,"<?xml version=""1.0""?>\n<Clock xmlns:dt=""urn:schemas-microsoft-com:datatypes""><Description dt:dt=""string"">E-Prime Primary Realtime Clock</Description><StartTime><Timestamp dt:dt=""int"">0</Timestamp><DateUtc dt:dt=""string"">2015-06-04T18:28:42Z</DateUtc></StartTime><FrequencyChanges><FrequencyChange><Frequency dt:dt=""r8"">2336191</Frequency><Timestamp dt:dt=""r8"">464498945</Timestamp><Current dt:dt=""r8"">0</Current><DateUtc dt:dt=""string"">2015-06-04T18:28:42Z</DateUtc></FrequencyChange></FrequencyChanges></Clock>\n",Tweet_Rating_Spanish_Right-10-1,59.796,1.0.0.383,Español,1,Personal docente y/o investigador,464952516,Professional,2.0.10.353,2.0.10.353,06/04/2015,04/06/2015 18:28,20:28:43,femenino ,2.0.10.248,4,4,1,4,BlockProc,BlockList,31,0,,1,2,2,c,11,1,1,,,,,,,TrialProc,1073508,Yes,2802,1076310,3,2326,1078660,5,3255,1081931,human,1597,1083551,TrialList,El amor es un fuego reconfortante.,,11,1,31
Tweet_Rating_Spanish_Right,10,1,45+,"<?xml version=""1.0""?>\n<Clock xmlns:dt=""urn:schemas-microsoft-com:datatypes""><Description dt:dt=""string"">E-Prime Primary Realtime Clock</Description><StartTime><Timestamp dt:dt=""int"">0</Timestamp><DateUtc dt:dt=""string"">2015-06-04T18:28:42Z</DateUtc></StartTime><FrequencyChanges><FrequencyChange><Frequency dt:dt=""r8"">2336191</Frequency><Timestamp dt:dt=""r8"">464498945</Timestamp><Current dt:dt=""r8"">0</Current><DateUtc dt:dt=""string"">2015-06-04T18:28:42Z</DateUtc></FrequencyChange></FrequencyChanges></Clock>\n",Tweet_Rating_Spanish_Right-10-1,59.796,1.0.0.383,Español,1,Personal docente y/o investigador,464952516,Professional,2.0.10.353,2.0.10.353,06/04/2015,04/06/2015 18:28,20:28:43,femenino ,2.0.10.248,4,4,1,4,BlockProc,BlockList,32,0,,2,2,2,c,15,1,1,,,,,,,TrialProc,1088476,No,7145,1095621,,0,0,1,2931,1098581,computer,2121,1100731,TrialList,La historia es una ciencia moderna.,,15,1,32
Tweet_Rating_Spanish_Right,10,1,45+,"<?xml version=""1.0""?>\n<Clock xmlns:dt=""urn:schemas-microsoft-com:datatypes""><Description dt:dt=""string"">E-Prime Primary Realtime Clock</Description><StartTime><Timestamp dt:dt=""int"">0</Timestamp><DateUtc dt:dt=""string"">2015-06-04T18:28:42Z</DateUtc></StartTime><FrequencyChanges><FrequencyChange><Frequency dt:dt=""r8"">2336191</Frequency><Timestamp dt:dt=""r8"">464498945</Timestamp><Current dt:dt=""r8"">0</Current><DateUtc dt:dt=""string"">2015-06-04T18:28:42Z</DateUtc></FrequencyChange></FrequencyChanges></Clock>\n",Tweet_Rating_Spanish_Right-10-1,59.796,1.0.0.383,Español,1,Personal docente y/o investigador,464952516,Professional,2.0.10.353,2.0.10.353,06/04/2015,04/06/2015 18:28,20:28:43,femenino ,2.0.10.248,4,4,1,4,BlockProc,BlockList,33,0,,2,3,1,c,39,3,3,,,,,,,TrialProc,1105283,No,3368,1108651,,0,0,1,1813,1110491,computer,1953,1112471,TrialList,El gobierno es una pintura encantadora.,,39,1,33
Tweet_Rating_Spanish_Right,10,1,45+,"<?xml version=""1.0""?>\n<Clock xmlns:dt=""urn:schemas-microsoft-com:datatypes""><Description dt:dt=""string"">E-Prime Primary Realtime Clock</Description><StartTime><Timestamp dt:dt=""int"">0</Timestamp><DateUtc dt:dt=""string"">2015-06-04T18:28:42Z</DateUtc></StartTime><FrequencyChanges><FrequencyChange><Frequency dt:dt=""r8"">2336191</Frequency><Timestamp dt:dt=""r8"">464498945</Timestamp><Current dt:dt=""r8"">0</Current><DateUtc dt:dt=""string"">2015-06-04T18:28:42Z</DateUtc></FrequencyChange></FrequencyChanges></Clock>\n",Tweet_Rating_Spanish_Right-10-1,59.796,1.0.0.383,Español,1,Personal docente y/o investigador,464952516,Professional,2.0.10.353,2.0.10.353,06/04/2015,04/06/2015 18:28,20:28:43,femenino ,2.0.10.248,4,4,1,4,BlockProc,BlockList,34,0,,1,2,2,c,1,2,2,,,,,,,TrialProc,1117157,Yes,4394,1121551,3,2509,1124081,5,3035,1127132,human,1504,1128662,TrialList,El habla es una canción reconfortante.,,1,1,34
Tweet_Rating_Spanish_Right,10,1,45+,"<?xml version=""1.0""?>\n<Clock xmlns:dt=""urn:schemas-microsoft-com:datatypes""><Description dt:dt=""string"">E-Prime Primary Realtime Clock</Description><StartTime><Timestamp dt:dt=""int"">0</Timestamp><DateUtc dt:dt=""string"">2015-06-04T18:28:42Z</DateUtc></StartTime><FrequencyChanges><FrequencyChange><Frequency dt:dt=""r8"">2336191</Frequency><Timestamp dt:dt=""r8"">464498945</Timestamp><Current dt:dt=""r8"">0</Current><DateUtc dt:dt=""string"">2015-06-04T18:28:42Z</DateUtc></FrequencyChange></FrequencyChanges></Clock>\n",Tweet_Rating_Spanish_Right-10-1,59.796,1.0.0.383,Español,1,Personal docente y/o investigador,464952516,Professional,2.0.10.353,2.0.10.353,06/04/2015,04/06/2015 18:28,20:28:43,femenino ,2.0.10.248,4,4,1,4,BlockProc,BlockList,35,0,,1,2,3,c,31,2,2,,,,,,,TrialProc,1132927,No,17316,1150243,,0,0,2,2394,1152664,computer,1438,1154133,TrialList,Las canciones son un fuego reconfortante.,,31,1,35
Tweet_Rating_Spanish_Right,10,1,45+,"<?xml version=""1.0""?>\n<Clock xmlns:dt=""urn:schemas-microsoft-com:datatypes""><Description dt:dt=""string"">E-Prime Primary Realtime Clock</Description><StartTime><Timestamp dt:dt=""int"">0</Timestamp><DateUtc dt:dt=""string"">2015-06-04T18:28:42Z</DateUtc></StartTime><FrequencyChanges><FrequencyChange><Frequency dt:dt=""r8"">2336191</Frequency><Timestamp dt:dt=""r8"">464498945</Timestamp><Current dt:dt=""r8"">0</Current><DateUtc dt:dt=""string"">2015-06-04T18:28:42Z</DateUtc></FrequencyChange></FrequencyChanges></Clock>\n",Tweet_Rating_Spanish_Right-10-1,59.796,1.0.0.383,Español,1,Personal docente y/o investigador,464952516,Professional,2.0.10.353,2.0.10.353,06/04/2015,04/06/2015 18:28,20:28:43,femenino ,2.0.10.248,4,4,1,4,BlockProc,BlockList,36,0,,2,2,1,c,4,3,3,,,,,,,TrialProc,1158732,No,3813,1162545,,0,0,1,1313,1163875,computer,1235,1165135,TrialList,El miedo es un dulce amor.,,4,1,36
Tweet_Rating_Spanish_Right,10,1,45+,"<?xml version=""1.0""?>\n<Clock xmlns:dt=""urn:schemas-microsoft-com:datatypes""><Description dt:dt=""string"">E-Prime Primary Realtime Clock</Description><StartTime><Timestamp dt:dt=""int"">0</Timestamp><DateUtc dt:dt=""string"">2015-06-04T18:28:42Z</DateUtc></StartTime><FrequencyChanges><FrequencyChange><Frequency dt:dt=""r8"">2336191</Frequency><Timestamp dt:dt=""r8"">464498945</Timestamp><Current dt:dt=""r8"">0</Current><DateUtc dt:dt=""string"">2015-06-04T18:28:42Z</DateUtc></FrequencyChange></FrequencyChanges></Clock>\n",Tweet_Rating_Spanish_Right-10-1,59.796,1.0.0.383,Español,1,Personal docente y/o investigador,464952516,Professional,2.0.10.353,2.0.10.353,06/04/2015,04/06/2015 18:28,20:28:43,femenino ,2.0.10.248,4,4,1,4,BlockProc,BlockList,37,1,,1,2,1,h,53,3,2,,,,,,,TrialProc,1169903,No,4525,1174428,,0,0,1,1426,1175878,computer,1251,1177158,TrialList,La evolución es una lotería en curso.,,53,1,37
Tweet_Rating_Spanish_Right,10,1,45+,"<?xml version=""1.0""?>\n<Clock xmlns:dt=""urn:schemas-microsoft-com:datatypes""><Description dt:dt=""string"">E-Prime Primary Realtime Clock</Description><StartTime><Timestamp dt:dt=""int"">0</Timestamp><DateUtc dt:dt=""string"">2015-06-04T18:28:42Z</DateUtc></StartTime><FrequencyChanges><FrequencyChange><Frequency dt:dt=""r8"">2336191</Frequency><Timestamp dt:dt=""r8"">464498945</Timestamp><Current dt:dt=""r8"">0</Current><DateUtc dt:dt=""string"">2015-06-04T18:28:42Z</DateUtc></FrequencyChange></FrequencyChanges></Clock>\n",Tweet_Rating_Spanish_Right-10-1,59.796,1.0.0.383,Español,1,Personal docente y/o investigador,464952516,Professional,2.0.10.353,2.0.10.353,06/04/2015,04/06/2015 18:28,20:28:43,femenino ,2.0.10.248,4,4,1,4,BlockProc,BlockList,38,1,,1,1,2,c,48,1,3,,,,,,,TrialProc,1181426,No,3744,1185170,,0,0,1,1632,1186821,computer,2027,1188871,TrialList,El gobierno es una luz cálida.,,48,1,38
Tweet_Rating_Spanish_Right,10,1,45+,"<?xml version=""1.0""?>\n<Clock xmlns:dt=""urn:schemas-microsoft-com:datatypes""><Description dt:dt=""string"">E-Prime Primary Realtime Clock</Description><StartTime><Timestamp dt:dt=""int"">0</Timestamp><DateUtc dt:dt=""string"">2015-06-04T18:28:42Z</DateUtc></StartTime><FrequencyChanges><FrequencyChange><Frequency dt:dt=""r8"">2336191</Frequency><Timestamp dt:dt=""r8"">464498945</Timestamp><Current dt:dt=""r8"">0</Current><DateUtc dt:dt=""string"">2015-06-04T18:28:42Z</DateUtc></FrequencyChange></FrequencyChanges></Clock>\n",Tweet_Rating_Spanish_Right-10-1,59.796,1.0.0.383,Español,1,Personal docente y/o investigador,464952516,Professional,2.0.10.353,2.0.10.353,06/04/2015,04/06/2015 18:28,20:28:43,femenino ,2.0.10.248,4,4,1,4,BlockProc,BlockList,39,0,,1,2,2,c,5,2,2,,,,,,,TrialProc,1193066,Yes,5718,1198784,3,2853,1201655,5,3248,1204926,human,1527,1206467,TrialList,La música es un fuego reconfortante.,,5,1,39
Tweet_Rating_Spanish_Right,10,1,45+,"<?xml version=""1.0""?>\n<Clock xmlns:dt=""urn:schemas-microsoft-com:datatypes""><Description dt:dt=""string"">E-Prime Primary Realtime Clock</Description><StartTime><Timestamp dt:dt=""int"">0</Timestamp><DateUtc dt:dt=""string"">2015-06-04T18:28:42Z</DateUtc></StartTime><FrequencyChanges><FrequencyChange><Frequency dt:dt=""r8"">2336191</Frequency><Timestamp dt:dt=""r8"">464498945</Timestamp><Current dt:dt=""r8"">0</Current><DateUtc dt:dt=""string"">2015-06-04T18:28:42Z</DateUtc></FrequencyChange></FrequencyChanges></Clock>\n",Tweet_Rating_Spanish_Right-10-1,59.796,1.0.0.383,Español,1,Personal docente y/o investigador,464952516,Professional,2.0.10.353,2.0.10.353,06/04/2015,04/06/2015 18:28,20:28:43,femenino ,2.0.10.248,4,4,1,4,BlockProc,BlockList,40,0,,2,1,2,h,52,1,1,,,,,,,TrialProc,1210542,Yes,6138,1216680,2,1845,1218541,3,2993,1221562,human,1413,1222993,TrialList,El peligro es una especia picante.,,52,1,40
Tweet_Rating_Spanish_Right,10,1,45+,"<?xml version=""1.0""?>\n<Clock xmlns:dt=""urn:schemas-microsoft-com:datatypes""><Description dt:dt=""string"">E-Prime Primary Realtime Clock</Description><StartTime><Timestamp dt:dt=""int"">0</Timestamp><DateUtc dt:dt=""string"">2015-06-04T18:28:42Z</DateUtc></StartTime><FrequencyChanges><FrequencyChange><Frequency dt:dt=""r8"">2336191</Frequency><Timestamp dt:dt=""r8"">464498945</Timestamp><Current dt:dt=""r8"">0</Current><DateUtc dt:dt=""string"">2015-06-04T18:28:42Z</DateUtc></FrequencyChange></FrequencyChanges></Clock>\n",Tweet_Rating_Spanish_Right-10-1,59.796,1.0.0.383,Español,1,Personal docente y/o investigador,464952516,Professional,2.0.10.353,2.0.10.353,06/04/2015,04/06/2015 18:28,20:28:43,femenino ,2.0.10.248,4,4,1,4,BlockProc,BlockList,41,0,,1,1,2,c,47,1,1,,,,,,,TrialProc,1227450,Yes,3766,1231216,3,1558,1232787,5,2907,1235708,human,1851,1237579,TrialList,El aprendizaje es una inversión gratificante.,,47,1,41
Tweet_Rating_Spanish_Right,10,1,45+,"<?xml version=""1.0""?>\n<Clock xmlns:dt=""urn:schemas-microsoft-com:datatypes""><Description dt:dt=""string"">E-Prime Primary Realtime Clock</Description><StartTime><Timestamp dt:dt=""int"">0</Timestamp><DateUtc dt:dt=""string"">2015-06-04T18:28:42Z</DateUtc></StartTime><FrequencyChanges><FrequencyChange><Frequency dt:dt=""r8"">2336191</Frequency><Timestamp dt:dt=""r8"">464498945</Timestamp><Current dt:dt=""r8"">0</Current><DateUtc dt:dt=""string"">2015-06-04T18:28:42Z</DateUtc></FrequencyChange></FrequencyChanges></Clock>\n",Tweet_Rating_Spanish_Right-10-1,59.796,1.0.0.383,Español,1,Personal docente y/o investigador,464952516,Professional,2.0.10.353,2.0.10.353,06/04/2015,04/06/2015 18:28,20:28:43,femenino ,2.0.10.248,4,4,1,4,BlockProc,BlockList,42,0,,2,2,2,c,38,2,2,,,,,,,TrialProc,1242033,Yes,4179,1246212,2,2344,1248574,3,3597,1252185,human,1395,1253596,TrialList,El amor es un medicamento beneficioso.,,38,1,42
Tweet_Rating_Spanish_Right,10,1,45+,"<?xml version=""1.0""?>\n<Clock xmlns:dt=""urn:schemas-microsoft-com:datatypes""><Description dt:dt=""string"">E-Prime Primary Realtime Clock</Description><StartTime><Timestamp dt:dt=""int"">0</Timestamp><DateUtc dt:dt=""string"">2015-06-04T18:28:42Z</DateUtc></StartTime><FrequencyChanges><FrequencyChange><Frequency dt:dt=""r8"">2336191</Frequency><Timestamp dt:dt=""r8"">464498945</Timestamp><Current dt:dt=""r8"">0</Current><DateUtc dt:dt=""string"">2015-06-04T18:28:42Z</DateUtc></FrequencyChange></FrequencyChanges></Clock>\n",Tweet_Rating_Spanish_Right-10-1,59.796,1.0.0.383,Español,1,Personal docente y/o investigador,464952516,Professional,2.0.10.353,2.0.10.353,06/04/2015,04/06/2015 18:28,20:28:43,femenino ,2.0.10.248,4,4,1,4,BlockProc,BlockList,43,0,,2,1,1,h,54,1,1,,,,,,,TrialProc,1257970,Yes,5110,1263080,1,4167,1267272,3,2217,1269502,human,1337,1270863,TrialList,El tiempo es un buen médico.,,54,1,43
Tweet_Rating_Spanish_Right,10,1,45+,"<?xml version=""1.0""?>\n<Clock xmlns:dt=""urn:schemas-microsoft-com:datatypes""><Description dt:dt=""string"">E-Prime Primary Realtime Clock</Description><StartTime><Timestamp dt:dt=""int"">0</Timestamp><DateUtc dt:dt=""string"">2015-06-04T18:28:42Z</DateUtc></StartTime><FrequencyChanges><FrequencyChange><Frequency dt:dt=""r8"">2336191</Frequency><Timestamp dt:dt=""r8"">464498945</Timestamp><Current dt:dt=""r8"">0</Current><DateUtc dt:dt=""string"">2015-06-04T18:28:42Z</DateUtc></FrequencyChange></FrequencyChanges></Clock>\n",Tweet_Rating_Spanish_Right-10-1,59.796,1.0.0.383,Español,1,Personal docente y/o investigador,464952516,Professional,2.0.10.353,2.0.10.353,06/04/2015,04/06/2015 18:28,20:28:43,femenino ,2.0.10.248,4,4,1,4,BlockProc,BlockList,44,0,,1,2,2,c,16,2,2,,,,,,,TrialProc,1275229,No,3308,1278537,,0,0,1,1021,1279578,computer,2915,1282509,TrialList,El poder es una luz cálida.,,16,1,44
